trials.thisRepN,trials.thisTrialN,trials.thisN,trials.thisIndex,thisRow.t,notes,trial.started,num_distr,fixation.started,target.started,mouse.started,fixation.stopped,trial.stopped,mouse.x,mouse.y,mouse.leftButton,mouse.midButton,mouse.rightButton,mouse.time,mouse.clicked_name,participant,session,date,expName,psychopyVersion,frameRate,expStart,
0,0,0,0,0.08528849999993326,,0.009753399999908652,10,0.08528849999993326,0.08528849999993326,0.06247940000002927,1.0974564000000555,2.140944300000001,[0.003703703703703704],[0.21944444444444444],[1],[0],[0],[2.0777795999999853],['target'],1,001,2024-10-10_13h48.21.660,Visual search exp,2024.1.5,None,2024-10-10 13h48.37.556148 +0530,
1,0,1,0,2.177658500000007,,2.1463997000000745,5,2.177658500000007,2.177658500000007,0.020473199999969438,3.191981599999963,3.3274587000000793,[0.05925925925925926],[0.025925925925925925],[1],[0],[0],[1.1609633999999005],['target'],1,001,2024-10-10_13h48.21.660,Visual search exp,2024.1.5,None,2024-10-10 13h48.37.556148 +0530,
2,0,2,0,3.3633056999999553,,3.3324857999998585,5,3.3633056999999553,3.3633056999999553,0.018870900000138136,4.378723000000036,4.73009060000004,[-0.45740740740740743],[0.362962962962963],[1],[0],[0],[1.3793066000000636],['target'],1,001,2024-10-10_13h48.21.660,Visual search exp,2024.1.5,None,2024-10-10 13h48.37.556148 +0530,
3,0,3,0,4.787076099999922,,4.734530799999902,10,4.787076099999922,4.787076099999922,0.03724399999987327,5.792637199999945,5.972527099999979,[0.1037037037037037],[-0.1814814814814815],[1],[0],[0],[1.2013351999999031],['target'],1,001,2024-10-10_13h48.21.660,Visual search exp,2024.1.5,None,2024-10-10 13h48.37.556148 +0530,
4,0,4,0,6.030574299999898,,5.9774463999999625,10,6.030574299999898,6.030574299999898,0.03835690000005343,7.040556799999877,7.042773899999929,[0.07407407407407407],[0.12685185185185185],[1],[0],[0],[1.02749730000005],['target'],1,001,2024-10-10_13h48.21.660,Visual search exp,2024.1.5,None,2024-10-10 13h48.37.556148 +0530,
5,0,5,0,7.079299699999865,,7.047170099999903,5,7.079299699999865,7.079299699999865,0.019422500000018772,8.086753000000044,8.930095599999959,[-0.3333333333333333],[0.41944444444444445],[1],[0],[0],[1.863516799999843],['target'],1,001,2024-10-10_13h48.21.660,Visual search exp,2024.1.5,None,2024-10-10 13h48.37.556148 +0530,
6,0,6,0,8.98314819999996,,8.935162300000002,5,8.98314819999996,8.98314819999996,0.03544259999989663,9.987585000000081,10.208965499999977,[-0.062037037037037036],[0.40925925925925927],[1],[0],[0],[1.2386695000000145],['target'],1,001,2024-10-10_13h48.21.660,Visual search exp,2024.1.5,None,2024-10-10 13h48.37.556148 +0530,
7,0,7,0,10.299678500000027,,10.217213399999991,10,10.299678500000027,10.299678500000027,0.05888049999998657,11.308344099999886,13.90997369999991,[0.3287037037037037],[0.28703703703703703],[1],[0],[0],[3.6352256000000125],['target'],1,001,2024-10-10_13h48.21.660,Visual search exp,2024.1.5,None,2024-10-10 13h48.37.556148 +0530,
8,0,8,0,13.954173899999887,,13.913245199999892,10,13.954173899999887,13.954173899999887,0.026671900000110327,14.954788199999939,15.672475200000008,[0.44907407407407407],[-0.053703703703703705],[1],[0],[0],[1.7328225999999631],['target'],1,001,2024-10-10_13h48.21.660,Visual search exp,2024.1.5,None,2024-10-10 13h48.37.556148 +0530,
9,0,9,0,15.702974199999971,,15.676517399999966,5,15.702974199999971,15.702974199999971,0.016986599999881946,16.705463999999893,17.65580769999997,[0.3907407407407407],[0.2824074074074074],[1],[0],[0],[1.9627938000000995],['target'],1,001,2024-10-10_13h48.21.660,Visual search exp,2024.1.5,None,2024-10-10 13h48.37.556148 +0530,
10,0,10,0,17.716135699999995,,17.66020279999998,10,17.716135699999995,17.716135699999995,0.03957839999998214,18.728834499999948,20.759450600000037,[-0.2638888888888889],[-0.19166666666666668],[1],[0],[0],[3.0601874999999836],['target'],1,001,2024-10-10_13h48.21.660,Visual search exp,2024.1.5,None,2024-10-10 13h48.37.556148 +0530,
11,0,11,0,20.814248500000076,,20.76401809999993,10,20.814248500000076,20.814248500000076,0.03556639999987965,21.81499000000008,22.39939490000006,[-0.0962962962962963],[0.22037037037037038],[1],[0],[0],[1.6003982000001997],['target'],1,001,2024-10-10_13h48.21.660,Visual search exp,2024.1.5,None,2024-10-10 13h48.37.556148 +0530,
12,0,12,0,22.43273619999991,,22.40373180000006,5,22.43273619999991,22.43273619999991,0.01827400000001944,23.437538200000063,23.670127399999956,[0.062037037037037036],[0.16018518518518518],[1],[0],[0],[1.2484956000000693],['target'],1,001,2024-10-10_13h48.21.660,Visual search exp,2024.1.5,None,2024-10-10 13h48.37.556148 +0530,
13,0,13,0,23.74140609999995,,23.674513799999886,10,23.74140609999995,23.74140609999995,0.042138200000181314,,24.45903270000008,[0.06296296296296296],[0.1787037037037037],[1],[0],[0],[0.742810400000053],['target'],1,001,2024-10-10_13h48.21.660,Visual search exp,2024.1.5,None,2024-10-10 13h48.37.556148 +0530,
14,0,14,0,24.51125009999987,,24.46569989999989,5,24.51125009999987,24.51125009999987,0.030704699999887453,25.51520299999993,26.63275939999994,[0.48148148148148145],[0.16944444444444445],[1],[0],[0],[2.1379855000000134],['target'],1,001,2024-10-10_13h48.21.660,Visual search exp,2024.1.5,None,2024-10-10 13h48.37.556148 +0530,
15,0,15,0,26.668680300000005,,26.637279600000056,5,26.668680300000005,26.668680300000005,0.01995260000012422,27.684142000000065,28.001697299999933,[-0.12314814814814815],[0.1175925925925926],[1],[0],[0],[1.3451420000001235],['target'],1,001,2024-10-10_13h48.21.660,Visual search exp,2024.1.5,None,2024-10-10 13h48.37.556148 +0530,
16,0,16,0,28.035343499999954,,28.00602179999987,5,28.035343499999954,28.035343499999954,0.019070399999918664,29.037940799999888,29.505153699999937,[0.3712962962962963],[-0.3490740740740741],[1],[0],[0],[1.480666200000087],['target'],1,001,2024-10-10_13h48.21.660,Visual search exp,2024.1.5,None,2024-10-10 13h48.37.556148 +0530,
17,0,17,0,29.539373599999863,,29.510063199999877,5,29.539373599999863,29.539373599999863,0.018808300000046074,30.540428799999972,33.838620999999875,[0.12685185185185185],[0.45740740740740743],[1],[0],[0],[4.310396399999945],['target'],1,001,2024-10-10_13h48.21.660,Visual search exp,2024.1.5,None,2024-10-10 13h48.37.556148 +0530,
18,0,18,0,33.90583379999998,,33.84331780000002,10,33.90583379999998,33.90583379999998,0.047237600000016755,34.91232439999999,37.739024900000004,[0.49722222222222223],[-0.18981481481481483],[1],[0],[0],[3.84933500000011],['target'],1,001,2024-10-10_13h48.21.660,Visual search exp,2024.1.5,None,2024-10-10 13h48.37.556148 +0530,
19,0,19,0,37.79096830000003,,37.74332120000008,10,37.79096830000003,37.79096830000003,0.032948600000054284,38.805008099999895,39.12248060000002,[-0.24722222222222223],[0.23055555555555557],[1],[0],[0],[1.346740999999838],['target'],1,001,2024-10-10_13h48.21.660,Visual search exp,2024.1.5,None,2024-10-10 13h48.37.556148 +0530,
20,0,20,0,39.17722570000001,,39.126804799999945,10,39.17722570000001,39.17722570000001,0.03543200000012803,40.17804320000005,40.27928500000007,[-0.1361111111111111],[0.3472222222222222],[1],[0],[0],[1.1176378000000113],['target'],1,001,2024-10-10_13h48.21.660,Visual search exp,2024.1.5,None,2024-10-10 13h48.37.556148 +0530,
21,0,21,0,40.33599159999994,,40.28366340000002,10,40.33599159999994,40.33599159999994,0.0375091999999313,41.35117910000008,42.096928199999866,[0.3712962962962963],[0.002777777777777778],[1],[0],[0],[1.7763455000001613],[],1,001,2024-10-10_13h48.21.660,Visual search exp,2024.1.5,None,2024-10-10 13h48.37.556148 +0530,
22,0,22,0,42.158979300000055,,42.10186699999986,10,42.158979300000055,42.158979300000055,0.041166900000007445,43.17064359999995,44.12683079999988,[0.1648148148148148],[0.35185185185185186],[1],[0],[0],[1.9841576999999688],['target'],1,001,2024-10-10_13h48.21.660,Visual search exp,2024.1.5,None,2024-10-10 13h48.37.556148 +0530,
23,0,23,0,44.19643180000003,,44.13216560000001,10,44.19643180000003,44.19643180000003,0.0482507000001533,45.21121500000004,46.51109889999998,[0.28888888888888886],[-0.08148148148148149],[1],[0],[0],[2.3315950999999586],['target'],1,001,2024-10-10_13h48.21.660,Visual search exp,2024.1.5,None,2024-10-10 13h48.37.556148 +0530,
24,0,24,0,46.546648000000005,,46.515484600000036,5,46.546648000000005,46.546648000000005,0.02106539999999768,47.54696319999994,47.78131029999986,[0.46111111111111114],[-0.016666666666666666],[1],[0],[0],[1.2453816999998253],['target'],1,001,2024-10-10_13h48.21.660,Visual search exp,2024.1.5,None,2024-10-10 13h48.37.556148 +0530,
25,0,25,0,47.837558899999976,,47.78584060000003,10,47.837558899999976,47.837558899999976,0.036633299999948576,48.85323840000001,50.2249491,[0.026851851851851852],[-0.22407407407407406],[1],[0],[0],[2.4030628999998953],[],1,001,2024-10-10_13h48.21.660,Visual search exp,2024.1.5,None,2024-10-10 13h48.37.556148 +0530,
26,0,26,0,50.26101820000008,,50.22983320000003,5,50.26101820000008,50.26101820000008,0.01970430000005763,51.260365200000024,52.27796220000005,[0.37407407407407406],[0.3277777777777778],[1],[0],[0],[2.0289505000000645],['target'],1,001,2024-10-10_13h48.21.660,Visual search exp,2024.1.5,None,2024-10-10 13h48.37.556148 +0530,
27,0,27,0,52.31221359999995,,52.282748099999935,5,52.31221359999995,52.31221359999995,0.018953000000010434,53.31316489999995,54.52982670000006,[0.11481481481481481],[0.4759259259259259],[1],[0],[0],[2.2286209000001236],['target'],1,001,2024-10-10_13h48.21.660,Visual search exp,2024.1.5,None,2024-10-10 13h48.37.556148 +0530,
28,0,28,0,54.58466679999992,,54.535193400000026,10,54.58466679999992,54.58466679999992,0.034952799999928175,55.595084099999895,56.240210199999865,[-0.17592592592592593],[0.15462962962962962],[1],[0],[0],[1.6705962999999429],['target'],1,001,2024-10-10_13h48.21.660,Visual search exp,2024.1.5,None,2024-10-10 13h48.37.556148 +0530,
29,0,29,0,56.27280270000006,,56.244785999999976,5,56.27280270000006,56.27280270000006,0.018125499999996464,57.27474170000005,57.59288719999995,[0.37222222222222223],[0.3490740740740741],[1],[0],[0],[1.3305521000002045],['target'],1,001,2024-10-10_13h48.21.660,Visual search exp,2024.1.5,None,2024-10-10 13h48.37.556148 +0530,
30,0,30,0,57.653324899999916,,57.59775300000001,10,57.653324899999916,57.653324899999916,0.04044969999995374,58.66636059999996,59.36616120000008,[-0.28425925925925927],[0.35555555555555557],[1],[0],[0],[1.728526200000033],['target'],1,001,2024-10-10_13h48.21.660,Visual search exp,2024.1.5,None,2024-10-10 13h48.37.556148 +0530,
31,0,31,0,59.422563599999876,,59.370905600000015,10,59.422563599999876,59.422563599999876,0.03690290000008645,60.43304740000008,61.83988720000002,[-0.04537037037037037],[-0.3425925925925926],[1],[0],[0],[2.4326583999998093],[],1,001,2024-10-10_13h48.21.660,Visual search exp,2024.1.5,None,2024-10-10 13h48.37.556148 +0530,
32,0,32,0,61.89439470000002,,61.84433530000001,10,61.89439470000002,61.89439470000002,0.03527950000011515,62.89501879999989,63.199990899999875,[0.36203703703703705],[0.017592592592592594],[1],[0],[0],[1.3210707999999158],[],1,001,2024-10-10_13h48.21.660,Visual search exp,2024.1.5,None,2024-10-10 13h48.37.556148 +0530,
33,0,33,0,63.25670319999995,,63.204778199999964,10,63.25670319999995,63.25670319999995,0.03624649999983376,64.26254969999991,67.78998679999995,[-0.2351851851851852],[0.4777777777777778],[1],[0],[0],[4.549528000000009],['target'],1,001,2024-10-10_13h48.21.660,Visual search exp,2024.1.5,None,2024-10-10 13h48.37.556148 +0530,
34,0,34,0,67.81794259999992,,67.79410860000007,5,67.81794259999992,67.81794259999992,0.014670099999875674,68.82132359999991,70.00580369999989,[0.2518518518518518],[-0.33796296296296297],[1],[0],[0],[2.197231699999975],['target'],1,001,2024-10-10_13h48.21.660,Visual search exp,2024.1.5,None,2024-10-10 13h48.37.556148 +0530,
35,0,35,0,70.06869000000006,,70.01095779999991,10,70.06869000000006,70.06869000000006,0.040025799999966694,71.0820483,71.71026419999998,[0.3638888888888889],[-0.375],[1],[0],[0],[1.659749500000089],['target'],1,001,2024-10-10_13h48.21.660,Visual search exp,2024.1.5,None,2024-10-10 13h48.37.556148 +0530,
36,0,36,0,71.75233129999992,,71.71572339999989,5,71.75233129999992,71.75233129999992,0.02224830000000111,72.75350589999994,73.1213851,[-0.13703703703703704],[-0.30925925925925923],[1],[0],[0],[1.3838920000000599],['target'],1,001,2024-10-10_13h48.21.660,Visual search exp,2024.1.5,None,2024-10-10 13h48.37.556148 +0530,
37,0,37,0,73.18274259999998,,73.12567190000004,10,73.18274259999998,73.18274259999998,0.038939900000059424,74.19398499999988,75.43793559999995,[0.040740740740740744],[0.41574074074074074],[1],[0],[0],[2.2737933999999314],['target'],1,001,2024-10-10_13h48.21.660,Visual search exp,2024.1.5,None,2024-10-10 13h48.37.556148 +0530,
38,0,38,0,75.47365309999986,,75.44277139999986,5,75.47365309999986,75.47365309999986,0.018887499999891588,76.47246580000001,77.07845789999988,[0.03611111111111111],[0.15462962962962962],[1],[0],[0],[1.6173656999999366],['target'],1,001,2024-10-10_13h48.21.660,Visual search exp,2024.1.5,None,2024-10-10 13h48.37.556148 +0530,
39,0,39,0,77.11773689999995,,77.0848489,5,77.11773689999995,77.11773689999995,0.021334099999876344,78.12856859999988,78.56389969999987,[-0.11018518518518519],[-0.31203703703703706],[1],[0],[0],[1.4589482999999746],['target'],1,001,2024-10-10_13h48.21.660,Visual search exp,2024.1.5,None,2024-10-10 13h48.37.556148 +0530,
40,0,40,0,78.64618389999987,,78.57021259999988,10,78.64618389999987,78.64618389999987,0.05246710000005805,79.66099409999993,79.88668860000007,[-0.2222222222222222],[0.1935185185185185],[1],[0],[0],[1.2646171000001232],['target'],1,001,2024-10-10_13h48.21.660,Visual search exp,2024.1.5,None,2024-10-10 13h48.37.556148 +0530,
41,0,41,0,79.91981699999997,,79.89150049999989,5,79.91981699999997,79.91981699999997,0.01781740000001264,80.92189860000008,81.1569121,[0.16203703703703703],[0.17314814814814813],[1],[0],[0],[1.2480322999999771],['target'],1,001,2024-10-10_13h48.21.660,Visual search exp,2024.1.5,None,2024-10-10 13h48.37.556148 +0530,
42,0,42,0,81.1915325,,81.1616446999999,5,81.1915325,81.1915325,0.01786820000006628,82.19186880000007,82.64329980000002,[0.21296296296296297],[-0.32685185185185184],[1],[0],[0],[1.4643906000001152],['target'],1,001,2024-10-10_13h48.21.660,Visual search exp,2024.1.5,None,2024-10-10 13h48.37.556148 +0530,
43,0,43,0,82.7021987999999,,82.64766099999997,10,82.7021987999999,82.7021987999999,0.03870819999997366,83.71195680000005,84.08780279999996,[0.011111111111111112],[0.23055555555555557],[1],[0],[0],[1.4020576999998866],['target'],1,001,2024-10-10_13h48.21.660,Visual search exp,2024.1.5,None,2024-10-10 13h48.37.556148 +0530,
44,0,44,0,84.12204139999994,,84.09202830000004,5,84.12204139999994,84.12204139999994,0.017868399999997564,85.12276769999994,85.64033549999999,[0.30648148148148147],[0.3425925925925926],[1],[0],[0],[1.5309857999998258],['target'],1,001,2024-10-10_13h48.21.660,Visual search exp,2024.1.5,None,2024-10-10 13h48.37.556148 +0530,
45,0,45,0,85.67381460000001,,85.64463550000005,5,85.67381460000001,85.67381460000001,0.01890729999990981,86.67579439999986,87.69275190000008,[0.32592592592592595],[-0.3314814814814815],[1],[0],[0],[2.0297750999998243],['target'],1,001,2024-10-10_13h48.21.660,Visual search exp,2024.1.5,None,2024-10-10 13h48.37.556148 +0530,
46,0,46,0,87.72676630000001,,87.69705729999987,5,87.72676630000001,87.72676630000001,0.017825299999913113,88.72824930000002,89.14598720000004,[0.000925925925925926],[0.1037037037037037],[1],[0],[0],[1.4316979000000174],['target'],1,001,2024-10-10_13h48.21.660,Visual search exp,2024.1.5,None,2024-10-10 13h48.37.556148 +0530,
47,0,47,0,89.19934119999994,,89.15059689999998,10,89.19934119999994,89.19934119999994,0.03389230000016141,,90.08175979999987,[-0.05462962962962963],[0.11574074074074074],[1],[0],[0],[0.8978257999999641],['target'],1,001,2024-10-10_13h48.21.660,Visual search exp,2024.1.5,None,2024-10-10 13h48.37.556148 +0530,
48,0,48,0,90.11722469999995,,90.08637429999999,5,90.11722469999995,90.11722469999995,0.01902339999992364,91.12437769999997,92.29243270000006,[0.22685185185185186],[0.44722222222222224],[1],[0],[0],[2.1873633000000154],['target'],1,001,2024-10-10_13h48.21.660,Visual search exp,2024.1.5,None,2024-10-10 13h48.37.556148 +0530,
49,0,49,0,92.36524929999996,,92.30018739999991,10,92.36524929999996,92.36524929999996,0.05116900000007263,93.37038430000007,95.09430389999989,[-0.12314814814814815],[-0.4638888888888889],[1],[0],[0],[2.7441191000000345],['target'],1,001,2024-10-10_13h48.21.660,Visual search exp,2024.1.5,None,2024-10-10 13h48.37.556148 +0530,
50,0,50,0,95.16441220000002,,95.09889939999994,10,95.16441220000002,95.16441220000002,0.04581329999996342,96.17582709999988,97.05647269999986,[-0.5046296296296297],[0.20185185185185187],[1],[0],[0],[1.9123656000001574],['target'],1,001,2024-10-10_13h48.21.660,Visual search exp,2024.1.5,None,2024-10-10 13h48.37.556148 +0530,
51,0,51,0,97.11864700000001,,97.06081560000007,10,97.11864700000001,97.11864700000001,0.04061589999992066,98.11591479999993,98.23429050000004,[-0.3861111111111111],[0.16296296296296298],[1],[0],[0],[1.1334603000000243],['target'],1,001,2024-10-10_13h48.21.660,Visual search exp,2024.1.5,None,2024-10-10 13h48.37.556148 +0530,
52,0,52,0,98.26695339999992,,98.23874729999989,5,98.26695339999992,98.26695339999992,0.017538000000058673,99.26838459999999,99.85273419999999,[0.25555555555555554],[0.4564814814814815],[1],[0],[0],[1.5970457000000806],['target'],1,001,2024-10-10_13h48.21.660,Visual search exp,2024.1.5,None,2024-10-10 13h48.37.556148 +0530,
53,0,53,0,99.88804379999988,,99.85706899999991,5,99.88804379999988,99.88804379999988,0.02046580000001086,100.88854149999997,101.50608209999996,[0.49166666666666664],[-0.06574074074074074],[1],[0],[0],[1.6291642999999567],[],1,001,2024-10-10_13h48.21.660,Visual search exp,2024.1.5,None,2024-10-10 13h48.37.556148 +0530,
54,0,54,0,101.54085259999988,,101.51042000000007,5,101.54085259999988,101.54085259999988,0.01782750000006672,102.54158409999991,102.85893759999999,[0.006481481481481481],[0.14351851851851852],[1],[0],[0],[1.3312945999998647],['target'],1,001,2024-10-10_13h48.21.660,Visual search exp,2024.1.5,None,2024-10-10 13h48.37.556148 +0530,
55,0,55,0,102.8931849999999,,102.86374640000008,5,102.8931849999999,102.8931849999999,0.018637899999930596,103.89468699999998,104.11281179999992,[-0.34074074074074073],[0.2564814814814815],[1],[0],[0],[1.2309421000002203],['target'],1,001,2024-10-10_13h48.21.660,Visual search exp,2024.1.5,None,2024-10-10 13h48.37.556148 +0530,
56,0,56,0,104.16988539999988,,104.11783990000004,10,104.16988539999988,104.16988539999988,0.03565739999999096,105.17156819999991,106.23652820000007,[-0.19166666666666668],[-0.21388888888888888],[1],[0],[0],[2.083562499999971],['target'],1,001,2024-10-10_13h48.21.660,Visual search exp,2024.1.5,None,2024-10-10 13h48.37.556148 +0530,
57,0,57,0,106.27273059999993,,106.24091270000008,5,106.27273059999993,106.27273059999993,0.021041299999978946,107.28766700000006,107.6226228999999,[0.03796296296296296],[0.03888888888888889],[1],[0],[0],[1.3611009999999624],['target'],1,001,2024-10-10_13h48.21.660,Visual search exp,2024.1.5,None,2024-10-10 13h48.37.556148 +0530,
58,0,58,0,107.65717470000004,,107.62762019999991,5,107.65717470000004,107.65717470000004,0.018362400000114576,108.65719549999994,108.69248149999999,[0.11018518518518519],[0.25092592592592594],[1],[0],[0],[1.0471046000000115],['target'],1,001,2024-10-10_13h48.21.660,Visual search exp,2024.1.5,None,2024-10-10 13h48.37.556148 +0530,
59,0,59,0,108.75193560000002,,108.69791199999986,10,108.75193560000002,108.75193560000002,0.03832400000010239,109.756664,110.16563410000003,[0.10925925925925926],[-0.06296296296296296],[1],[0],[0],[1.4299940000000788],['target'],1,001,2024-10-10_13h48.21.660,Visual search exp,2024.1.5,None,2024-10-10 13h48.37.556148 +0530,
60,0,60,0,110.22281599999997,,110.17143110000006,10,110.22281599999997,110.22281599999997,0.03652549999992516,111.23103040000001,111.32599039999991,[0.12962962962962962],[0.175],[1],[0],[0],[1.11863940000012],['target'],1,001,2024-10-10_13h48.21.660,Visual search exp,2024.1.5,None,2024-10-10 13h48.37.556148 +0530,
61,0,61,0,111.36093019999998,,111.33037769999987,5,111.36093019999998,111.36093019999998,0.019704999999930806,112.36087829999997,112.67876490000003,[0.24074074074074073],[-0.16111111111111112],[1],[0],[0],[1.329259699999966],['target'],1,001,2024-10-10_13h48.21.660,Visual search exp,2024.1.5,None,2024-10-10 13h48.37.556148 +0530,
62,0,62,0,112.73952499999996,,112.68356629999994,10,112.73952499999996,112.73952499999996,0.04067310000004909,113.74714689999996,114.76991840000005,[0.4685185185185185],[-0.15925925925925927],[1],[0],[0],[2.0462285999999494],['target'],1,001,2024-10-10_13h48.21.660,Visual search exp,2024.1.5,None,2024-10-10 13h48.37.556148 +0530,
63,0,63,0,114.80337340000005,,114.77481310000007,5,114.80337340000005,114.80337340000005,0.018194799999946554,115.80471820000002,116.18962499999998,[-0.175],[-0.14722222222222223],[1],[0],[0],[1.3972071999999116],[],1,001,2024-10-10_13h48.21.660,Visual search exp,2024.1.5,None,2024-10-10 13h48.37.556148 +0530,
64,0,64,0,116.24764529999993,,116.19444279999993,10,116.24764529999993,116.24764529999993,0.036081299999978,117.25401179999994,118.94676479999998,[0.3277777777777778],[0.3962962962962963],[1],[0],[0],[2.7167996999999104],['target'],1,001,2024-10-10_13h48.21.660,Visual search exp,2024.1.5,None,2024-10-10 13h48.37.556148 +0530,
65,0,65,0,119.00555910000003,,118.95189619999996,10,119.00555910000003,119.00555910000003,0.03805880000004436,120.00500039999997,120.93724769999994,[0.1388888888888889],[-0.37962962962962965],[1],[0],[0],[1.9479570999999396],[],1,001,2024-10-10_13h48.21.660,Visual search exp,2024.1.5,None,2024-10-10 13h48.37.556148 +0530,
66,0,66,0,120.97190610000007,,120.94156109999994,5,120.97190610000007,120.97190610000007,0.019741999999951076,121.97190090000004,123.05661959999998,[-0.06944444444444445],[0.49907407407407406],[1],[0],[0],[2.095721600000161],[],1,001,2024-10-10_13h48.21.660,Visual search exp,2024.1.5,None,2024-10-10 13h48.37.556148 +0530,
67,0,67,0,123.09176039999988,,123.06136409999999,5,123.09176039999988,123.09176039999988,0.0201488000000154,124.0908617,126.20719149999991,[0.27870370370370373],[-0.47314814814814815],[1],[0],[0],[3.1261692999999013],['target'],1,001,2024-10-10_13h48.21.660,Visual search exp,2024.1.5,None,2024-10-10 13h48.37.556148 +0530,
68,0,68,0,126.2438365999999,,126.21150769999986,5,126.2438365999999,126.2438365999999,0.020854000000099404,127.24676969999996,127.46024480000005,[0.20185185185185187],[-0.21203703703703702],[1],[0],[0],[1.2284242000000631],['target'],1,001,2024-10-10_13h48.21.660,Visual search exp,2024.1.5,None,2024-10-10 13h48.37.556148 +0530,
69,0,69,0,127.49462689999996,,127.4649801999999,5,127.49462689999996,127.49462689999996,0.0192979999999352,128.49574549999988,128.89740460000007,[-0.3972222222222222],[-0.1287037037037037],[1],[0],[0],[1.4136625999999524],['target'],1,001,2024-10-10_13h48.21.660,Visual search exp,2024.1.5,None,2024-10-10 13h48.37.556148 +0530,
70,0,70,0,128.95149109999988,,128.90179940000007,10,128.95149109999988,128.95149109999988,0.03477240000006532,129.95539770000005,130.53711440000006,[0.022222222222222223],[0.24722222222222223],[1],[0],[0],[1.6010908000000654],['target'],1,001,2024-10-10_13h48.21.660,Visual search exp,2024.1.5,None,2024-10-10 13h48.37.556148 +0530,
71,0,71,0,130.59178070000007,,130.54143410000006,10,130.59178070000007,130.59178070000007,0.036055300000043644,131.59558330000004,132.3826024,[0.044444444444444446],[-0.17777777777777778],[1],[0],[0],[1.8056850999998915],['target'],1,001,2024-10-10_13h48.21.660,Visual search exp,2024.1.5,None,2024-10-10 13h48.37.556148 +0530,
72,0,72,0,132.44440469999995,,132.38737880000008,10,132.44440469999995,132.44440469999995,0.03777730000001611,133.44192610000005,134.03727279999998,[0.03518518518518519],[-0.39351851851851855],[1],[0],[0],[1.6125813999999536],['target'],1,001,2024-10-10_13h48.21.660,Visual search exp,2024.1.5,None,2024-10-10 13h48.37.556148 +0530,
73,0,73,0,134.09367810000003,,134.04173349999996,10,134.09367810000003,134.09367810000003,0.03692300000011528,135.1062397999999,136.27612169999998,[-0.28888888888888886],[0.2824074074074074],[1],[0],[0],[2.197987000000012],['target'],1,001,2024-10-10_13h48.21.660,Visual search exp,2024.1.5,None,2024-10-10 13h48.37.556148 +0530,
74,0,74,0,136.31133780000005,,136.28062969999996,5,136.31133780000005,136.31133780000005,0.019828199999892604,137.3240667,137.99202179999997,[-0.20555555555555555],[0.09351851851851851],[1],[0],[0],[1.6921669999999267],['target'],1,001,2024-10-10_13h48.21.660,Visual search exp,2024.1.5,None,2024-10-10 13h48.37.556148 +0530,
75,0,75,0,138.02486299999987,,137.99635169999988,5,138.02486299999987,138.02486299999987,0.01825349999990067,139.0270814999999,139.21251439999992,[0.14074074074074075],[0.18703703703703703],[1],[0],[0],[1.1983002999998007],['target'],1,001,2024-10-10_13h48.21.660,Visual search exp,2024.1.5,None,2024-10-10 13h48.37.556148 +0530,
76,0,76,0,139.27808830000004,,139.22149050000007,10,139.27808830000004,139.27808830000004,0.04054120000000694,140.291248,140.9404930999999,[-0.49722222222222223],[0.03796296296296296],[1],[0],[0],[1.6796514000000116],['target'],1,001,2024-10-10_13h48.21.660,Visual search exp,2024.1.5,None,2024-10-10 13h48.37.556148 +0530,
77,0,77,0,141.00363820000007,,140.94534989999988,10,141.00363820000007,141.00363820000007,0.04201940000007198,,141.95596419999993,[-0.4527777777777778],[0.11574074074074074],[1],[0],[0],[0.9693033000000923],['target'],1,001,2024-10-10_13h48.21.660,Visual search exp,2024.1.5,None,2024-10-10 13h48.37.556148 +0530,
78,0,78,0,142.01437650000003,,141.96081409999988,10,142.01437650000003,142.01437650000003,0.037854300000162766,143.01734499999998,143.83070210000005,[-0.487962962962963],[-0.07222222222222222],[1],[0],[0],[1.832488499999954],['target'],1,001,2024-10-10_13h48.21.660,Visual search exp,2024.1.5,None,2024-10-10 13h48.37.556148 +0530,
79,0,79,0,143.89371419999998,,143.83518630000003,10,143.89371419999998,143.89371419999998,0.04173339999988457,144.89307209999993,145.09418340000002,[-0.24537037037037038],[0.10555555555555556],[1],[0],[0],[1.2178625999999895],['target'],1,001,2024-10-10_13h48.21.660,Visual search exp,2024.1.5,None,2024-10-10 13h48.37.556148 +0530,
80,0,80,0,145.1288474999999,,145.09899040000005,5,145.1288474999999,145.1288474999999,0.01939289999995708,146.1296387,147.13084839999988,[-0.08518518518518518],[-0.3851851851851852],[1],[0],[0],[2.013038300000062],['target'],1,001,2024-10-10_13h48.21.660,Visual search exp,2024.1.5,None,2024-10-10 13h48.37.556148 +0530,
81,0,81,0,147.18623479999997,,147.1352348999999,10,147.18623479999997,147.18623479999997,0.03603580000003603,148.19326690000003,148.38974439999993,[-0.25462962962962965],[0.003703703703703704],[1],[0],[0],[1.21905670000001],['target'],1,001,2024-10-10_13h48.21.660,Visual search exp,2024.1.5,None,2024-10-10 13h48.37.556148 +0530,
82,0,82,0,148.4228619999999,,148.39466360000006,5,148.4228619999999,148.4228619999999,0.018077700000048935,149.42548669999996,151.95786569999996,[0.2814814814814815],[-0.3814814814814815],[1],[0],[0],[3.545739400000002],['target'],1,001,2024-10-10_13h48.21.660,Visual search exp,2024.1.5,None,2024-10-10 13h48.37.556148 +0530,
83,0,83,0,151.99344500000007,,151.96248479999986,5,151.99344500000007,151.99344500000007,0.020116700000016863,152.99333439999987,153.21109120000006,[0.15925925925925927],[-0.38981481481481484],[1],[0],[0],[1.228950000000168],['target'],1,001,2024-10-10_13h48.21.660,Visual search exp,2024.1.5,None,2024-10-10 13h48.37.556148 +0530,
84,0,84,0,153.24422099999992,,153.21542150000005,5,153.24422099999992,153.24422099999992,0.01853849999997692,154.24623939999992,154.96347659999992,[0.3287037037037037],[-0.3277777777777778],[1],[0],[0],[1.7301422000000457],['target'],1,001,2024-10-10_13h48.21.660,Visual search exp,2024.1.5,None,2024-10-10 13h48.37.556148 +0530,
85,0,85,0,155.01730049999992,,154.96827400000006,10,155.01730049999992,155.01730049999992,0.03456859999982953,156.0308101999999,156.37066119999986,[-0.07037037037037037],[-0.16944444444444445],[1],[0],[0],[1.3683633999999074],['target'],1,001,2024-10-10_13h48.21.660,Visual search exp,2024.1.5,None,2024-10-10 13h48.37.556148 +0530,
86,0,86,0,156.4054329999999,,156.37499809999986,5,156.4054329999999,156.4054329999999,0.019264099999872997,157.40665450000006,158.6238022,[-0.08425925925925926],[0.21944444444444444],[1],[0],[0],[2.2301244000000224],['target'],1,001,2024-10-10_13h48.21.660,Visual search exp,2024.1.5,None,2024-10-10 13h48.37.556148 +0530,
87,0,87,0,158.65647620000004,,158.62805409999987,5,158.65647620000004,158.65647620000004,0.017679900000075577,159.65853629999992,160.37732600000004,[-0.49722222222222223],[-0.4527777777777778],[1],[0],[0],[1.7321486000000732],['target'],1,001,2024-10-10_13h48.21.660,Visual search exp,2024.1.5,None,2024-10-10 13h48.37.556148 +0530,
88,0,88,0,160.4555848,,160.3824322999999,10,160.4555848,160.4555848,0.05138329999999769,161.45492220000006,162.39102789999993,[-0.4388888888888889],[-0.44537037037037036],[1],[0],[0],[1.9577401999999893],['target'],1,001,2024-10-10_13h48.21.660,Visual search exp,2024.1.5,None,2024-10-10 13h48.37.556148 +0530,
89,0,89,0,162.44772339999986,,162.39582169999994,10,162.44772339999986,162.44772339999986,0.03649660000019139,163.45930270000008,164.70285869999998,[0.2935185185185185],[-0.03611111111111111],[1],[0],[0],[2.2711093000000346],['target'],1,001,2024-10-10_13h48.21.660,Visual search exp,2024.1.5,None,2024-10-10 13h48.37.556148 +0530,
90,0,90,0,164.75580349999996,,164.70719919999988,10,164.75580349999996,164.75580349999996,0.034203400000023976,165.75749930000006,165.87544049999997,[0.38055555555555554],[-0.012037037037037037],[1],[0],[0],[1.1345991999999114],['target'],1,001,2024-10-10_13h48.21.660,Visual search exp,2024.1.5,None,2024-10-10 13h48.37.556148 +0530,
91,0,91,0,165.90711229999988,,165.87966149999988,5,165.90711229999988,165.90711229999988,0.017526299999872208,166.9095989,167.5771603999999,[0.05925925925925926],[0.43703703703703706],[1],[0],[0],[1.680326500000092],['target'],1,001,2024-10-10_13h48.21.660,Visual search exp,2024.1.5,None,2024-10-10 13h48.37.556148 +0530,
92,0,92,0,167.6331098999999,,167.58178700000008,10,167.6331098999999,167.6331098999999,0.036174999999957436,168.6344798,169.68420500000002,[0.3287037037037037],[0.30833333333333335],[1],[0],[0],[2.06680399999982],['target'],1,001,2024-10-10_13h48.21.660,Visual search exp,2024.1.5,None,2024-10-10 13h48.37.556148 +0530,
93,0,93,0,169.71971559999997,,169.689032,5,169.71971559999997,169.71971559999997,0.019473500000003696,170.7188701,171.53668330000005,[0.48148148148148145],[-0.07685185185185185],[1],[0],[0],[1.8285562000000937],['target'],1,001,2024-10-10_13h48.21.660,Visual search exp,2024.1.5,None,2024-10-10 13h48.37.556148 +0530,
94,0,94,0,171.58286249999992,,171.5438185999999,5,171.58286249999992,171.58286249999992,0.029685999999855994,172.5882168999999,172.9056882,[-0.20925925925925926],[-0.1935185185185185],[1],[0],[0],[1.3334964000000582],['target'],1,001,2024-10-10_13h48.21.660,Visual search exp,2024.1.5,None,2024-10-10 13h48.37.556148 +0530,
95,0,95,0,172.96094240000002,,172.91077999999993,10,172.96094240000002,172.96094240000002,0.035769200000004275,173.96957670000006,174.56301989999997,[-0.23333333333333334],[-0.16296296296296298],[1],[0],[0],[1.6170948000001317],['target'],1,001,2024-10-10_13h48.21.660,Visual search exp,2024.1.5,None,2024-10-10 13h48.37.556148 +0530,
96,0,96,0,174.6237572,,174.56745449999994,10,174.6237572,174.6237572,0.039878599999838116,175.6415010999999,177.01649670000006,[-0.18611111111111112],[0.3351851851851852],[1],[0],[0],[2.4098179999998592],['target'],1,001,2024-10-10_13h48.21.660,Visual search exp,2024.1.5,None,2024-10-10 13h48.37.556148 +0530,
97,0,97,0,177.052273,,177.02093360000003,5,177.052273,177.052273,0.019120799999882365,178.05116429999998,178.60274299999992,[0.19074074074074074],[-0.08333333333333333],[1],[0],[0],[1.5632545000000846],[],1,001,2024-10-10_13h48.21.660,Visual search exp,2024.1.5,None,2024-10-10 13h48.37.556148 +0530,
98,0,98,0,178.65713589999996,,178.6075140999999,10,178.65713589999996,178.65713589999996,0.03522709999992912,179.66090929999996,180.5257810999999,[0.3],[0.375],[1],[0],[0],[1.8836025000000518],['target'],1,001,2024-10-10_13h48.21.660,Visual search exp,2024.1.5,None,2024-10-10 13h48.37.556148 +0530,
99,0,99,0,180.5602053,,180.53023239999993,5,180.5602053,180.5602053,0.018234500000062326,181.56087359999992,182.02893849999987,[-0.47685185185185186],[-0.12314814814814815],[1],[0],[0],[1.481085000000121],['target'],1,001,2024-10-10_13h48.21.660,Visual search exp,2024.1.5,None,2024-10-10 13h48.37.556148 +0530,
100,0,100,0,182.07003989999998,,182.0337606999999,5,182.07003989999998,182.07003989999998,0.022385299999996278,183.08074399999987,183.58135119999997,[-0.34629629629629627],[-0.05462962962962963],[1],[0],[0],[1.5258033000000069],['target'],1,001,2024-10-10_13h48.21.660,Visual search exp,2024.1.5,None,2024-10-10 13h48.37.556148 +0530,
101,0,101,0,183.64070429999992,,183.58621040000003,10,183.64070429999992,183.64070429999992,0.03884260000018003,184.66422280000006,185.26473080000005,[0.0],[0.28425925925925927],[1],[0],[0],[1.6405718000000888],['target'],1,001,2024-10-10_13h48.21.660,Visual search exp,2024.1.5,None,2024-10-10 13h48.37.556148 +0530,
102,0,102,0,185.30226399999992,,185.26921979999997,5,185.30226399999992,185.30226399999992,0.020068600000058723,186.3109359,187.94684030000008,[-0.15833333333333333],[-0.13333333333333333],[1],[0],[0],[2.6578679999997803],['target'],1,001,2024-10-10_13h48.21.660,Visual search exp,2024.1.5,None,2024-10-10 13h48.37.556148 +0530,
103,0,103,0,187.99940270000002,,187.95350129999997,5,187.99940270000002,187.99940270000002,0.029579999999896245,189.00055789999988,189.92009310000003,[0.30462962962962964],[0.09166666666666666],[1],[0],[0],[1.9381539999999404],['target'],1,001,2024-10-10_13h48.21.660,Visual search exp,2024.1.5,None,2024-10-10 13h48.37.556148 +0530,
104,0,104,0,189.98432669999988,,189.92594970000005,10,189.98432669999988,189.98432669999988,0.040786000000025524,191.00295979999987,193.17479490000005,[-0.4685185185185185],[0.4111111111111111],[1],[0],[0],[3.209267399999817],['target'],1,001,2024-10-10_13h48.21.660,Visual search exp,2024.1.5,None,2024-10-10 13h48.37.556148 +0530,
105,0,105,0,193.2120852999999,,193.179443,5,193.2120852999999,193.2120852999999,0.01976039999999557,194.21927559999995,194.5203629,[-0.4],[0.010185185185185186],[1],[0],[0],[1.3216082999999799],['target'],1,001,2024-10-10_13h48.21.660,Visual search exp,2024.1.5,None,2024-10-10 13h48.37.556148 +0530,
106,0,106,0,194.55337800000007,,194.5239021,5,194.55337800000007,194.55337800000007,0.01676180000004024,195.55383089999987,195.9449674,[-0.5037037037037037],[0.29814814814814816],[1],[0],[0],[1.404735399999936],['target'],1,001,2024-10-10_13h48.21.660,Visual search exp,2024.1.5,None,2024-10-10 13h48.37.556148 +0530,
107,0,107,0,195.98009120000006,,195.95029750000003,5,195.98009120000006,195.98009120000006,0.01957399999992049,196.9948245999999,197.98015699999996,[0.33055555555555555],[-0.1388888888888889],[1],[0],[0],[2.010883799999874],['target'],1,001,2024-10-10_13h48.21.660,Visual search exp,2024.1.5,None,2024-10-10 13h48.37.556148 +0530,
108,0,108,0,198.0392056999999,,197.98870579999993,5,198.0392056999999,198.0392056999999,0.03247620000001916,199.04300839999996,199.54397889999996,[-0.21203703703703702],[0.14907407407407408],[1],[0],[0],[1.5241327000001093],['target'],1,001,2024-10-10_13h48.21.660,Visual search exp,2024.1.5,None,2024-10-10 13h48.37.556148 +0530,
109,0,109,0,199.59919130000003,,199.54840680000007,10,199.59919130000003,199.59919130000003,0.03631730000006428,200.60448199999996,201.00307279999993,[-0.2722222222222222],[0.36203703703703705],[1],[0],[0],[1.418945899999926],['target'],1,001,2024-10-10_13h48.21.660,Visual search exp,2024.1.5,None,2024-10-10 13h48.37.556148 +0530,
110,0,110,0,201.05843979999986,,201.00787119999995,10,201.05843979999986,201.05843979999986,0.03615769999987606,202.0588843999999,202.48007080000002,[0.39814814814814814],[0.43333333333333335],[1],[0],[0],[1.4366405000000668],['target'],1,001,2024-10-10_13h48.21.660,Visual search exp,2024.1.5,None,2024-10-10 13h48.37.556148 +0530,
111,0,111,0,202.5138359,,202.48458749999986,5,202.5138359,202.5138359,0.01797179999994114,203.5127640999999,203.7640374,[-0.09537037037037037],[-0.3638888888888889],[1],[0],[0],[1.2622029999999995],['target'],1,001,2024-10-10_13h48.21.660,Visual search exp,2024.1.5,None,2024-10-10 13h48.37.556148 +0530,
112,0,112,0,203.81677439999999,,203.76835260000007,10,203.81677439999999,203.81677439999999,0.03357980000009775,204.82871109999996,205.2433077999999,[0.17592592592592593],[-0.06388888888888888],[1],[0],[0],[1.4415013000000272],['target'],1,001,2024-10-10_13h48.21.660,Visual search exp,2024.1.5,None,2024-10-10 13h48.37.556148 +0530,
113,0,113,0,205.28215640000008,,205.24996800000008,5,205.28215640000008,205.28215640000008,0.02060869999991155,206.29397679999988,206.4123763,[-0.28888888888888886],[0.08981481481481482],[1],[0],[0],[1.1423537000000579],['target'],1,001,2024-10-10_13h48.21.660,Visual search exp,2024.1.5,None,2024-10-10 13h48.37.556148 +0530,
114,0,114,0,206.47970009999995,,206.4171214999999,10,206.47970009999995,206.47970009999995,0.042949800000087635,207.4779094999999,207.57514079999987,[-0.30092592592592593],[0.010185185185185186],[1],[0],[0],[1.1157545999999456],['target'],1,001,2024-10-10_13h48.21.660,Visual search exp,2024.1.5,None,2024-10-10 13h48.37.556148 +0530,
115,0,115,0,207.61185980000005,,207.5795246,5,207.61185980000005,207.61185980000005,0.02157390000002124,208.62750549999987,209.36127899999997,[0.30277777777777776],[-0.13055555555555556],[1],[0],[0],[1.7606767999998283],['target'],1,001,2024-10-10_13h48.21.660,Visual search exp,2024.1.5,None,2024-10-10 13h48.37.556148 +0530,
116,0,116,0,209.41603759999998,,209.36597299999994,10,209.41603759999998,209.41603759999998,0.03518569999982901,210.41779780000002,211.25790819999997,[-0.23796296296296296],[-0.15925925925925927],[1],[0],[0],[1.8571502000002056],['target'],1,001,2024-10-10_13h48.21.660,Visual search exp,2024.1.5,None,2024-10-10 13h48.37.556148 +0530,
117,0,117,0,211.29878099999996,,211.26415049999991,5,211.29878099999996,211.29878099999996,0.022795200000018667,212.3042309,212.38918519999993,[-0.4166666666666667],[0.06851851851851852],[1],[0],[0],[1.103087000000187],['target'],1,001,2024-10-10_13h48.21.660,Visual search exp,2024.1.5,None,2024-10-10 13h48.37.556148 +0530,
118,0,118,0,212.45734749999997,,212.39361310000004,10,212.45734749999997,212.45734749999997,0.04548879999993005,213.46586819999993,214.0688677999999,[-0.48518518518518516],[-0.08333333333333333],[1],[0],[0],[1.6303083000000242],['target'],1,001,2024-10-10_13h48.21.660,Visual search exp,2024.1.5,None,2024-10-10 13h48.37.556148 +0530,
119,0,119,0,214.14326959999994,,214.07549369999992,10,214.14326959999994,214.14326959999994,0.04993319999994128,215.15751279999995,215.91854940000007,[0.44722222222222224],[0.2824074074074074],[1],[0],[0],[1.7937521999999717],['target'],1,001,2024-10-10_13h48.21.660,Visual search exp,2024.1.5,None,2024-10-10 13h48.37.556148 +0530,
120,0,120,0,215.96319419999986,,215.92509889999997,5,215.96319419999986,215.96319419999986,0.022930300000098214,216.97688100000005,217.2443381999999,[-0.24074074074074073],[0.041666666666666664],[1],[0],[0],[1.297382399999833],['target'],1,001,2024-10-10_13h48.21.660,Visual search exp,2024.1.5,None,2024-10-10 13h48.37.556148 +0530,
121,0,121,0,217.28508420000003,,217.24739509999995,5,217.28508420000003,217.28508420000003,0.020933000000013635,218.29658790000008,218.49774980000007,[0.012037037037037037],[0.2861111111111111],[1],[0],[0],[1.229723599999943],['target'],1,001,2024-10-10_13h48.21.660,Visual search exp,2024.1.5,None,2024-10-10 13h48.37.556148 +0530,
122,0,122,0,218.56363499999998,,218.5012807999999,10,218.56363499999998,218.56363499999998,0.041207299999996394,219.56365559999995,220.0424332,[-0.45555555555555555],[-0.001851851851851852],[1],[0],[0],[1.500326399999949],['target'],1,001,2024-10-10_13h48.21.660,Visual search exp,2024.1.5,None,2024-10-10 13h48.37.556148 +0530,
123,0,123,0,220.1130584,,220.04787020000003,10,220.1130584,220.1130584,0.04371579999997266,221.12191860000007,221.83243270000003,[0.25925925925925924],[0.4074074074074074],[1],[0],[0],[1.7417320999998083],['target'],1,001,2024-10-10_13h48.21.660,Visual search exp,2024.1.5,None,2024-10-10 13h48.37.556148 +0530,
124,0,124,0,221.8641943,,221.83655629999998,5,221.8641943,221.8641943,0.016289299999925788,222.8734735999999,223.00851650000004,[-0.1175925925925926],[0.23055555555555557],[1],[0],[0],[1.156197999999904],['target'],1,001,2024-10-10_13h48.21.660,Visual search exp,2024.1.5,None,2024-10-10 13h48.37.556148 +0530,
125,0,125,0,223.04764909999994,,223.011297,10,223.04764909999994,223.04764909999994,0.023424900000009075,224.06030510000005,224.6275111,[-0.4787037037037037],[0.3333333333333333],[1],[0],[0],[1.5929826999999932],['target'],1,001,2024-10-10_13h48.21.660,Visual search exp,2024.1.5,None,2024-10-10 13h48.37.556148 +0530,
126,0,126,0,224.65986399999997,,224.63178070000004,5,224.65986399999997,224.65986399999997,0.01823459999991428,225.6618145,226.8467215999999,[0.4101851851851852],[-0.07314814814814814],[1],[0],[0],[2.197260000000142],['target'],1,001,2024-10-10_13h48.21.660,Visual search exp,2024.1.5,None,2024-10-10 13h48.37.556148 +0530,
127,0,127,0,226.91013939999993,,226.85257750000005,10,226.91013939999993,226.91013939999993,0.04028010000001814,227.91790049999986,229.00166820000004,[0.4740740740740741],[-0.09351851851851851],[1],[0],[0],[2.109699899999896],['target'],1,001,2024-10-10_13h48.21.660,Visual search exp,2024.1.5,None,2024-10-10 13h48.37.556148 +0530,
128,0,128,0,229.03581719999988,,229.00643739999987,5,229.03581719999988,229.03581719999988,0.019011200000022654,230.03732620000005,230.18886659999998,[-0.4148148148148148],[0.05925925925925926],[1],[0],[0],[1.1640056000001096],['target'],1,001,2024-10-10_13h48.21.660,Visual search exp,2024.1.5,None,2024-10-10 13h48.37.556148 +0530,
129,0,129,0,230.2433747,,230.19322280000006,10,230.2433747,230.2433747,0.03595230000019001,231.2448386000001,233.07753030000003,[0.4305555555555556],[0.3638888888888889],[1],[0],[0],[2.8490104999998493],['target'],1,001,2024-10-10_13h48.21.660,Visual search exp,2024.1.5,None,2024-10-10 13h48.37.556148 +0530,
130,0,130,0,233.10985279999977,,233.0818223000001,5,233.10985279999977,233.10985279999977,0.01822279999987586,234.10933609999984,235.9789308999998,[0.4009259259259259],[-0.45555555555555555],[1],[0],[0],[2.8793789999999717],['target'],1,001,2024-10-10_13h48.21.660,Visual search exp,2024.1.5,None,2024-10-10 13h48.37.556148 +0530,
131,0,131,0,236.03209060000017,,235.9832268,10,236.03209060000017,236.03209060000017,0.034393200000067736,237.03499759999977,238.28465689999985,[-0.33055555555555555],[0.16018518518518518],[1],[0],[0],[2.267479600000115],['target'],1,001,2024-10-10_13h48.21.660,Visual search exp,2024.1.5,None,2024-10-10 13h48.37.556148 +0530,
132,0,132,0,238.34195959999988,,238.28904439999997,10,238.34195959999988,238.34195959999988,0.037896899999850575,239.35103780000009,239.97537809999994,[0.14166666666666666],[0.30648148148148147],[1],[0],[0],[1.6490128999998888],['target'],1,001,2024-10-10_13h48.21.660,Visual search exp,2024.1.5,None,2024-10-10 13h48.37.556148 +0530,
133,0,133,0,240.0346596999998,,239.98016610000013,10,240.0346596999998,240.0346596999998,0.039524299999811774,241.04781580000008,242.69774849999976,[0.4703703703703704],[-0.26481481481481484],[1],[0],[0],[2.6786456999998336],['target'],1,001,2024-10-10_13h48.21.660,Visual search exp,2024.1.5,None,2024-10-10 13h48.37.556148 +0530,
134,0,134,0,242.73332070000015,,242.70210499999985,5,242.73332070000015,242.73332070000015,0.020663499999955093,243.7332738,244.13509109999995,[-0.24814814814814815],[-0.22685185185185186],[1],[0],[0],[1.4128990000003796],['target'],1,001,2024-10-10_13h48.21.660,Visual search exp,2024.1.5,None,2024-10-10 13h48.37.556148 +0530,
135,0,135,0,244.19252649999999,,244.1394919999998,10,244.19252649999999,244.19252649999999,0.03608170000006794,245.20732700000008,245.54550599999993,[0.0824074074074074],[0.16574074074074074],[1],[0],[0],[1.3705202999999528],['target'],1,001,2024-10-10_13h48.21.660,Visual search exp,2024.1.5,None,2024-10-10 13h48.37.556148 +0530,
136,0,136,0,245.5783077000001,,245.54986210000015,5,245.5783077000001,245.5783077000001,0.018456200000400713,246.5808631,246.9993427999998,[0.12962962962962962],[0.2388888888888889],[1],[0],[0],[1.4315886999997929],['target'],1,001,2024-10-10_13h48.21.660,Visual search exp,2024.1.5,None,2024-10-10 13h48.37.556148 +0530,
137,0,137,0,247.03602189999992,,247.00414199999977,5,247.03602189999992,247.03602189999992,0.019714600000042992,248.0502704999999,248.41776440000012,[-0.10740740740740741],[0.12962962962962962],[1],[0],[0],[1.3944942000002811],['target'],1,001,2024-10-10_13h48.21.660,Visual search exp,2024.1.5,None,2024-10-10 13h48.37.556148 +0530,
138,0,138,0,248.45093279999992,,248.42207730000018,5,248.45093279999992,248.45093279999992,0.018017900000359077,249.45272569999997,250.6036595999999,[-0.4527777777777778],[-0.24444444444444444],[1],[0],[0],[2.164143800000147],['target'],1,001,2024-10-10_13h48.21.660,Visual search exp,2024.1.5,None,2024-10-10 13h48.37.556148 +0530,
139,0,139,0,250.6380709,,250.60841089999985,5,250.6380709,250.6380709,0.019706099999893922,251.6392076000002,253.02239999999983,[-0.06851851851851852],[-0.4212962962962963],[1],[0],[0],[2.395345399999769],['target'],1,001,2024-10-10_13h48.21.660,Visual search exp,2024.1.5,None,2024-10-10 13h48.37.556148 +0530,
140,0,140,0,253.07981130000007,,253.02668670000003,10,253.07981130000007,253.07981130000007,0.038735600000109116,,253.34698609999987,[-0.06851851851851852],[-0.4212962962962963],[1],[0],[0],[0.28214550000029703],['target'],1,001,2024-10-10_13h48.21.660,Visual search exp,2024.1.5,None,2024-10-10 13h48.37.556148 +0530,
141,0,141,0,253.38155599999982,,253.35233879999987,5,253.38155599999982,253.38155599999982,0.018239100000300823,254.3828023000001,255.10046060000013,[0.40370370370370373],[-0.17314814814814813],[1],[0],[0],[1.730465500000264],['target'],1,001,2024-10-10_13h48.21.660,Visual search exp,2024.1.5,None,2024-10-10 13h48.37.556148 +0530,
142,0,142,0,255.13419290000002,,255.1052107999999,5,255.13419290000002,255.13419290000002,0.018686299999899347,256.13574830000016,256.61952410000004,[-0.337037037037037],[0.275],[1],[0],[0],[1.4961602999997012],['target'],1,001,2024-10-10_13h48.21.660,Visual search exp,2024.1.5,None,2024-10-10 13h48.37.556148 +0530,
143,0,143,0,256.6849837999998,,256.62478379999993,10,256.6849837999998,256.6849837999998,0.041967900000145164,257.6923649999999,258.19959000000017,[-0.1712962962962963],[0.387037037037037],[1],[0],[0],[1.5337993999996797],['target'],1,001,2024-10-10_13h48.21.660,Visual search exp,2024.1.5,None,2024-10-10 13h48.37.556148 +0530,
144,0,144,0,258.2528782999998,,258.20427040000004,10,258.2528782999998,258.2528782999998,0.034292700000150944,259.2641402999998,260.2224126000001,[-0.31203703703703706],[-0.40555555555555556],[1],[0],[0],[1.9844379000001027],['target'],1,001,2024-10-10_13h48.21.660,Visual search exp,2024.1.5,None,2024-10-10 13h48.37.556148 +0530,
145,0,145,0,260.2787773,,260.22673239999995,10,260.2787773,260.2787773,0.03481680000004417,261.2794979999999,261.74699139999984,[-0.19166666666666668],[0.27314814814814814],[1],[0],[0],[1.4858189000001403],['target'],1,001,2024-10-10_13h48.21.660,Visual search exp,2024.1.5,None,2024-10-10 13h48.37.556148 +0530,
146,0,146,0,261.7801171000001,,261.7513958999998,5,261.7801171000001,261.7801171000001,0.01845229999980802,262.7819073999999,263.33244109999987,[0.4101851851851852],[0.21481481481481482],[1],[0],[0],[1.5631217000000106],['target'],1,001,2024-10-10_13h48.21.660,Visual search exp,2024.1.5,None,2024-10-10 13h48.37.556148 +0530,
147,0,147,0,263.3874732999998,,263.33704149999994,10,263.3874732999998,263.3874732999998,0.036102199999731965,264.3908574000002,266.64013939999995,[0.15],[0.43703703703703706],[1],[0],[0],[3.267568400000073],['target'],1,001,2024-10-10_13h48.21.660,Visual search exp,2024.1.5,None,2024-10-10 13h48.37.556148 +0530,
148,0,148,0,266.69704,,266.64506359999996,10,266.69704,266.69704,0.036484700000073644,267.70247519999975,268.0036819000002,[0.06481481481481481],[0.11388888888888889],[1],[0],[0],[1.322812200000044],['target'],1,001,2024-10-10_13h48.21.660,Visual search exp,2024.1.5,None,2024-10-10 13h48.37.556148 +0530,
149,0,149,0,268.0384592999999,,268.0084587000001,5,268.0384592999999,268.0384592999999,0.01918309999973644,269.0390047000001,269.3229461000001,[-0.12962962962962962],[0.03333333333333333],[1],[0],[0],[1.2958871000000727],['target'],1,001,2024-10-10_13h48.21.660,Visual search exp,2024.1.5,None,2024-10-10 13h48.37.556148 +0530,
150,0,150,0,269.3580262999999,,269.32722490000015,5,269.3580262999999,269.3580262999999,0.019234899999901245,270.3587263999998,271.16215539999985,[0.11296296296296296],[-0.19814814814814816],[1],[0],[0],[1.8160840000000462],['target'],1,001,2024-10-10_13h48.21.660,Visual search exp,2024.1.5,None,2024-10-10 13h48.37.556148 +0530,
151,0,151,0,271.2124868000001,,271.17034280000007,5,271.2124868000001,271.2124868000001,0.031222600000091916,272.21478530000013,272.8831046999999,[-0.4148148148148148],[-0.018518518518518517],[1],[0],[0],[1.6828436000000693],['target'],1,001,2024-10-10_13h48.21.660,Visual search exp,2024.1.5,None,2024-10-10 13h48.37.556148 +0530,
152,0,152,0,272.9621275999998,,272.8917431,10,272.9621275999998,272.9621275999998,0.05610750000005282,273.9660880000001,274.3601702000001,[-0.512962962962963],[0.20833333333333334],[1],[0],[0],[1.4137907999997879],['target'],1,001,2024-10-10_13h48.21.660,Visual search exp,2024.1.5,None,2024-10-10 13h48.37.556148 +0530,
153,0,153,0,274.41699040000003,,274.3661471999999,10,274.41699040000003,274.41699040000003,0.03674349999982951,275.4163629999998,275.86759840000013,[-0.022222222222222223],[0.4305555555555556],[1],[0],[0],[1.4659759000001031],['target'],1,001,2024-10-10_13h48.21.660,Visual search exp,2024.1.5,None,2024-10-10 13h48.37.556148 +0530,
154,0,154,0,275.9015983999998,,275.8720198000001,5,275.9015983999998,275.9015983999998,0.01772739999978512,276.9027756999999,277.9038182999998,[0.08148148148148149],[-0.20925925925925926],[1],[0],[0],[2.014599900000121],['target'],1,001,2024-10-10_13h48.21.660,Visual search exp,2024.1.5,None,2024-10-10 13h48.37.556148 +0530,
155,0,155,0,277.95674580000014,,277.9082232999999,10,277.95674580000014,277.95674580000014,0.03358739999976024,278.9615291,280.92556049999985,[0.4777777777777778],[-0.17777777777777778],[1],[0],[0],[2.9843017000002874],['target'],1,001,2024-10-10_13h48.21.660,Visual search exp,2024.1.5,None,2024-10-10 13h48.37.556148 +0530,
156,0,156,0,280.95978319999995,,280.93037490000006,5,280.95978319999995,280.95978319999995,0.019074900000305206,281.9608767,283.6118459999998,[0.009259259259259259],[0.049074074074074076],[1],[0],[0],[2.6629751000000397],['target'],1,001,2024-10-10_13h48.21.660,Visual search exp,2024.1.5,None,2024-10-10 13h48.37.556148 +0530,
157,0,157,0,283.6455640999998,,283.61658069999976,5,283.6455640999998,283.6455640999998,0.018367699999998877,284.64662009999984,284.8978539,[0.08888888888888889],[0.18611111111111112],[1],[0],[0],[1.263490400000137],['target'],1,001,2024-10-10_13h48.21.660,Visual search exp,2024.1.5,None,2024-10-10 13h48.37.556148 +0530,
158,0,158,0,284.93018429999984,,284.90215720000015,5,284.93018429999984,284.93018429999984,0.017727000000377302,285.93251139999984,288.31738749999977,[0.3351851851851852],[-0.2074074074074074],[1],[0],[0],[3.3980492000000595],['target'],1,001,2024-10-10_13h48.21.660,Visual search exp,2024.1.5,None,2024-10-10 13h48.37.556148 +0530,
159,0,159,0,288.38171150000016,,288.32160699999986,10,288.38171150000016,288.38171150000016,0.04274290000012115,289.3954865999999,291.2498534000001,[-0.41203703703703703],[-0.1287037037037037],[1],[0],[0],[2.8860829000000194],[],1,001,2024-10-10_13h48.21.660,Visual search exp,2024.1.5,None,2024-10-10 13h48.37.556148 +0530,
160,0,160,0,291.3060609999998,,291.2541464000001,10,291.3060609999998,291.3060609999998,0.036649799999850075,292.3123276000001,292.8737744,[0.30092592592592593],[0.2796296296296296],[1],[0],[0],[1.5834896999999728],['target'],1,001,2024-10-10_13h48.21.660,Visual search exp,2024.1.5,None,2024-10-10 13h48.37.556148 +0530,
161,0,161,0,292.9312184999999,,292.8784676999999,10,292.9312184999999,292.9312184999999,0.0379584999996041,293.9368264,294.2146352999998,[0.17314814814814813],[0.1925925925925926],[1],[0],[0],[1.2987711000000672],['target'],1,001,2024-10-10_13h48.21.660,Visual search exp,2024.1.5,None,2024-10-10 13h48.37.556148 +0530,
162,0,162,0,294.24806910000007,,294.2202778999999,5,294.24806910000007,294.24806910000007,0.017390200000136247,295.2489261999999,295.9330113000001,[-0.2462962962962963],[-0.2916666666666667],[1],[0],[0],[1.6959411000002547],['target'],1,001,2024-10-10_13h48.21.660,Visual search exp,2024.1.5,None,2024-10-10 13h48.37.556148 +0530,
163,0,163,0,295.9892012999999,,295.93738029999986,10,295.9892012999999,295.9892012999999,0.03646789999993416,296.9920255000002,298.60622379999995,[0.29907407407407405],[-0.43796296296296294],[1],[0],[0],[2.6330119999997805],['target'],1,001,2024-10-10_13h48.21.660,Visual search exp,2024.1.5,None,2024-10-10 13h48.37.556148 +0530,
164,0,164,0,298.66339819999985,,298.61241040000004,10,298.66339819999985,298.66339819999985,0.036643399999775284,299.6671642000001,300.87914920000003,[-0.2759259259259259],[0.1638888888888889],[1],[0],[0],[2.231051100000059],['target'],1,001,2024-10-10_13h48.21.660,Visual search exp,2024.1.5,None,2024-10-10 13h48.37.556148 +0530,
165,0,165,0,300.91298400000005,,300.88400950000005,5,300.91298400000005,300.91298400000005,0.018727600000147504,301.91436399999975,304.7646915999999,[0.37592592592592594],[-0.21481481481481482],[1],[0],[0],[3.8625684999997247],['target'],1,001,2024-10-10_13h48.21.660,Visual search exp,2024.1.5,None,2024-10-10 13h48.37.556148 +0530,
166,0,166,0,304.80033679999997,,304.7694627000001,5,304.80033679999997,304.80033679999997,0.019414899999901536,305.8151088999998,306.31712579999976,[0.2898148148148148],[0.05740740740740741],[1],[0],[0],[1.5287977000002684],['target'],1,001,2024-10-10_13h48.21.660,Visual search exp,2024.1.5,None,2024-10-10 13h48.37.556148 +0530,
167,0,167,0,306.37532580000016,,306.32253119999996,10,306.37532580000016,306.37532580000016,0.037000499999976455,307.37831449999976,308.3112565000001,[-0.10092592592592593],[-0.2861111111111111],[1],[0],[0],[1.952163400000245],['target'],1,001,2024-10-10_13h48.21.660,Visual search exp,2024.1.5,None,2024-10-10 13h48.37.556148 +0530,
168,0,168,0,308.3652262999999,,308.3156296000002,10,308.3652262999999,308.3652262999999,0.03518209999992905,309.3672714999998,309.93021050000016,[-0.18055555555555555],[0.275],[1],[0],[0],[1.5798362000000452],['target'],1,001,2024-10-10_13h48.21.660,Visual search exp,2024.1.5,None,2024-10-10 13h48.37.556148 +0530,
169,0,169,0,309.9654313000001,,309.93553280000015,5,309.9654313000001,309.9654313000001,0.0196949000001041,310.9702530999998,312.27028870000004,[0.07037037037037037],[-0.3851851851851852],[1],[0],[0],[2.3158705999999256],['target'],1,001,2024-10-10_13h48.21.660,Visual search exp,2024.1.5,None,2024-10-10 13h48.37.556148 +0530,
170,0,170,0,312.3112725000001,,312.27461349999976,5,312.3112725000001,312.3112725000001,0.02084820000027321,313.3225929,314.48990589999994,[0.013888888888888888],[-0.43425925925925923],[1],[0],[0],[2.1949053999996977],['target'],1,001,2024-10-10_13h48.21.660,Visual search exp,2024.1.5,None,2024-10-10 13h48.37.556148 +0530,
171,0,171,0,314.52267359999996,,314.49469599999975,5,314.52267359999996,314.52267359999996,0.01754269999992175,315.5240607999999,316.30858179999996,[-0.4287037037037037],[-0.20833333333333334],[1],[0],[0],[1.796936199999891],['target'],1,001,2024-10-10_13h48.21.660,Visual search exp,2024.1.5,None,2024-10-10 13h48.37.556148 +0530,
172,0,172,0,316.36321020000014,,316.3128364999998,10,316.36321020000014,316.36321020000014,0.035877199999958975,317.365088,320.6331289999998,[0.337037037037037],[-0.475],[1],[0],[0],[4.284875100000136],['target'],1,001,2024-10-10_13h48.21.660,Visual search exp,2024.1.5,None,2024-10-10 13h48.37.556148 +0530,
173,0,173,0,320.6668642999998,,320.63806650000015,5,320.6668642999998,320.6668642999998,0.01825589999998556,321.6683939999998,321.9363580999998,[0.3111111111111111],[-0.12777777777777777],[1],[0],[0],[1.2806393000000753],['target'],1,001,2024-10-10_13h48.21.660,Visual search exp,2024.1.5,None,2024-10-10 13h48.37.556148 +0530,
174,0,174,0,321.9696594000002,,321.94074999999975,5,321.9696594000002,321.9696594000002,0.018776200000047538,322.9712410000002,323.6400832999998,[0.09351851851851851],[-0.2722222222222222],[1],[0],[0],[1.6809472999998434],['target'],1,001,2024-10-10_13h48.21.660,Visual search exp,2024.1.5,None,2024-10-10 13h48.37.556148 +0530,
175,0,175,0,323.7102089,,323.6487269999998,10,323.7102089,323.7102089,0.046980099999927916,324.70803220000016,325.0125659999999,[-0.07407407407407407],[0.08703703703703704],[1],[0],[0],[1.3181798000000526],['target'],1,001,2024-10-10_13h48.21.660,Visual search exp,2024.1.5,None,2024-10-10 13h48.37.556148 +0530,
176,0,176,0,325.0481742000002,,325.0169602000001,5,325.0481742000002,325.0481742000002,0.019117300000289106,326.0612934999999,326.81259869999985,[-0.49074074074074076],[-0.4351851851851852],[1],[0],[0],[1.7771260999998049],['target'],1,001,2024-10-10_13h48.21.660,Visual search exp,2024.1.5,None,2024-10-10 13h48.37.556148 +0530,
177,0,177,0,326.86826070000006,,326.8169134999998,10,326.86826070000006,326.86826070000006,0.03690110000025015,327.8731198999999,328.7454965000002,[-0.07037037037037037],[-0.24166666666666667],[1],[0],[0],[1.8923227000000225],['target'],1,001,2024-10-10_13h48.21.660,Visual search exp,2024.1.5,None,2024-10-10 13h48.37.556148 +0530,
178,0,178,0,328.78070449999996,,328.7499091999998,5,328.78070449999996,328.78070449999996,0.02002459999994244,329.7811267000002,331.71456899999976,[0.32592592592592595],[-0.23055555555555557],[1],[0],[0],[2.945163500000035],['target'],1,001,2024-10-10_13h48.21.660,Visual search exp,2024.1.5,None,2024-10-10 13h48.37.556148 +0530,
179,0,179,0,331.7713315000001,,331.7193493999998,10,331.7713315000001,331.7713315000001,0.03600319999986823,332.77765580000005,333.18779240000003,[-0.09722222222222222],[0.011111111111111112],[1],[0],[0],[1.4330314999997427],['target'],1,001,2024-10-10_13h48.21.660,Visual search exp,2024.1.5,None,2024-10-10 13h48.37.556148 +0530,
180,0,180,0,333.2442228,,333.1921441999998,10,333.2442228,333.2442228,0.03579910000007658,334.24626910000006,336.49347050000006,[0.04814814814814815],[-0.3101851851851852],[1],[0],[0],[3.2660945000002357],['target'],1,001,2024-10-10_13h48.21.660,Visual search exp,2024.1.5,None,2024-10-10 13h48.37.556148 +0530,
181,0,181,0,336.5286658,,336.4980612999998,5,336.5286658,336.5286658,0.018677500000194414,337.52906900000016,339.1464351999998,[0.44814814814814813],[0.011111111111111112],[1],[0],[0],[2.630312899999808],['target'],1,001,2024-10-10_13h48.21.660,Visual search exp,2024.1.5,None,2024-10-10 13h48.37.556148 +0530,
182,0,182,0,339.2001065999998,,339.15066560000014,10,339.2001065999998,339.2001065999998,0.03507179999996879,340.21360189999996,341.7199397999998,[0.08981481481481482],[-0.3333333333333333],[1],[0],[0],[2.5347744000000603],['target'],1,001,2024-10-10_13h48.21.660,Visual search exp,2024.1.5,None,2024-10-10 13h48.37.556148 +0530,
183,0,183,0,341.75475319999987,,341.7243149000001,5,341.75475319999987,341.75475319999987,0.01884569999992891,342.75499219999983,343.6887587000001,[-0.26944444444444443],[0.20925925925925926],[1],[0],[0],[1.946219100000235],['target'],1,001,2024-10-10_13h48.21.660,Visual search exp,2024.1.5,None,2024-10-10 13h48.37.556148 +0530,
184,0,184,0,343.72278559999995,,343.69350510000004,5,343.72278559999995,343.72278559999995,0.018889300000410003,344.7239752999999,345.47482549999995,[-0.020370370370370372],[-0.1962962962962963],[1],[0],[0],[1.7628091999999924],['target'],1,001,2024-10-10_13h48.21.660,Visual search exp,2024.1.5,None,2024-10-10 13h48.37.556148 +0530,
185,0,185,0,345.50930329999983,,345.4793595000001,5,345.50930329999983,345.50930329999983,0.018214000000170927,346.5101199999999,347.1452374999999,[-0.4148148148148148],[-0.13148148148148148],[1],[0],[0],[1.648145900000145],['target'],1,001,2024-10-10_13h48.21.660,Visual search exp,2024.1.5,None,2024-10-10 13h48.37.556148 +0530,
186,0,186,0,347.1774000999999,,347.1495911000002,5,347.1774000999999,347.1774000999999,0.017582999999831372,348.1799658,349.89605230000006,[0.06018518518518518],[-0.4722222222222222],[1],[0],[0],[2.7293588999996246],[],1,001,2024-10-10_13h48.21.660,Visual search exp,2024.1.5,None,2024-10-10 13h48.37.556148 +0530,
187,0,187,0,349.9284386999998,,349.90068789999987,5,349.9284386999998,349.9284386999998,0.0175174999999399,350.93023159999984,351.913951,[0.021296296296296296],[-0.018518518518518517],[1],[0],[0],[1.9963401999998496],['target'],1,001,2024-10-10_13h48.21.660,Visual search exp,2024.1.5,None,2024-10-10 13h48.37.556148 +0530,
188,0,188,0,351.95238199999994,,351.91842719999977,5,351.95238199999994,351.95238199999994,0.021647899999607034,352.9670639000001,354.2166505,[0.11018518518518519],[0.25833333333333336],[1],[0],[0],[2.2771834000000126],['target'],1,001,2024-10-10_13h48.21.660,Visual search exp,2024.1.5,None,2024-10-10 13h48.37.556148 +0530,
189,0,189,0,354.24863300000015,,354.22094930000003,5,354.24863300000015,354.24863300000015,0.017448999999942316,355.2510404999998,357.63323790000004,[0.35648148148148145],[-0.25555555555555554],[1],[0],[0],[3.3954106000001048],['target'],1,001,2024-10-10_13h48.21.660,Visual search exp,2024.1.5,None,2024-10-10 13h48.37.556148 +0530,
190,0,190,0,357.6663321000001,,357.6380414999999,5,357.6663321000001,357.6663321000001,0.017404400000032183,358.66836269999976,359.8013771000001,[-0.30648148148148147],[0.19166666666666668],[1],[0],[0],[2.1465604999998504],['target'],1,001,2024-10-10_13h48.21.660,Visual search exp,2024.1.5,None,2024-10-10 13h48.37.556148 +0530,
191,0,191,0,359.86060629999974,,359.80593499999986,10,359.86060629999974,359.86060629999974,0.03807599999981903,360.8752991000001,362.62553190000017,[-0.4888888888888889],[-0.3648148148148148],[1],[0],[0],[2.7820959000000585],['target'],1,001,2024-10-10_13h48.21.660,Visual search exp,2024.1.5,None,2024-10-10 13h48.37.556148 +0530,
192,0,192,0,362.6805813000001,,362.6298585999998,10,362.6805813000001,362.6805813000001,0.035538200000246434,363.69662119999975,364.1597649,[-0.2361111111111111],[-0.32407407407407407],[1],[0],[0],[1.4949440999998842],['target'],1,001,2024-10-10_13h48.21.660,Visual search exp,2024.1.5,None,2024-10-10 13h48.37.556148 +0530,
193,0,193,0,364.2167327000002,,364.1640683999999,10,364.2167327000002,364.2167327000002,0.036215399999946385,365.22207750000007,366.93135219999976,[-0.14907407407407408],[0.40925925925925927],[1],[0],[0],[2.7316412000000128],['target'],1,001,2024-10-10_13h48.21.660,Visual search exp,2024.1.5,None,2024-10-10 13h48.37.556148 +0530,
194,0,194,0,366.9863430999999,,366.93610390000003,10,366.9863430999999,366.9863430999999,0.03567179999981818,367.99384550000013,370.05430990000013,[0.21481481481481482],[0.11203703703703703],[1],[0],[0],[3.083068599999933],['target'],1,001,2024-10-10_13h48.21.660,Visual search exp,2024.1.5,None,2024-10-10 13h48.37.556148 +0530,
195,0,195,0,370.1091068999999,,370.05910399999993,10,370.1091068999999,370.1091068999999,0.035331500000211236,371.1236902999999,371.4286062000001,[-0.2759259259259259],[0.23055555555555557],[1],[0],[0],[1.334729199999856],['target'],1,001,2024-10-10_13h48.21.660,Visual search exp,2024.1.5,None,2024-10-10 13h48.37.556148 +0530,
196,0,196,0,371.46225319999985,,371.43318439999985,5,371.46225319999985,371.46225319999985,0.01898490000030506,372.46348149999994,373.71406130000014,[-0.14814814814814814],[-0.30185185185185187],[1],[0],[0],[2.262618199999906],['target'],1,001,2024-10-10_13h48.21.660,Visual search exp,2024.1.5,None,2024-10-10 13h48.37.556148 +0530,
197,0,197,0,373.77551779999976,,373.7188667999999,10,373.77551779999976,373.77551779999976,0.04031159999976808,374.7800812999999,376.02037040000005,[0.2388888888888889],[0.017592592592592594],[1],[0],[0],[2.26184319999993],['target'],1,001,2024-10-10_13h48.21.660,Visual search exp,2024.1.5,None,2024-10-10 13h48.37.556148 +0530,
198,0,198,0,376.0749744999998,,376.0251162999998,10,376.0749744999998,376.0749744999998,0.035282099999676575,377.08912310000005,377.84602730000006,[-0.4685185185185185],[-0.021296296296296296],[1],[0],[0],[1.7860109000002922],['target'],1,001,2024-10-10_13h48.21.660,Visual search exp,2024.1.5,None,2024-10-10 13h48.37.556148 +0530,
199,0,199,0,377.88025879999987,,377.8507430999998,5,377.88025879999987,377.88025879999987,0.019037000000025728,378.8797144,379.2147166999998,[-0.3592592592592593],[-0.1925925925925926],[1],[0],[0],[1.3455241999999998],['target'],1,001,2024-10-10_13h48.21.660,Visual search exp,2024.1.5,None,2024-10-10 13h48.37.556148 +0530,
