trials.thisRepN,trials.thisTrialN,trials.thisN,trials.thisIndex,thisRow.t,notes,trial.started,num_distr,fixation.started,target.started,mouse.started,fixation.stopped,trial.stopped,mouse.x,mouse.y,mouse.leftButton,mouse.midButton,mouse.rightButton,mouse.time,mouse.clicked_name,participant,session,date,expName,psychopyVersion,frameRate,expStart,
0,0,0,0,0.0932939999993323,,0.012488499999562919,10,0.0932939999993323,0.0932939999993323,0.07117030000063096,1.1011146000000736,2.360809199999494,[-0.2601851851851852],[0.005555555555555556],[1],[0],[0],[2.2888907999995354],['target'],2,001,2024-10-10_14h32.38.856,Visual search exp,2024.1.5,None,2024-10-10 14h32.52.917479 +0530,
1,0,1,0,2.4235922999996546,,2.367287299999589,10,2.4235922999996546,2.4235922999996546,0.03775469999982306,3.4246306999993976,6.636501399999361,[-0.2972222222222222],[0.4148148148148148],[1],[0],[0],[4.232063399999788],['target'],2,001,2024-10-10_14h32.38.856,Visual search exp,2024.1.5,None,2024-10-10 14h32.52.917479 +0530,
2,0,2,0,6.671800099999928,,6.640885299999354,5,6.671800099999928,6.671800099999928,0.019728899999790883,7.670934400000078,8.822826999999961,[-0.04259259259259259],[-0.16018518518518518],[1],[0],[0],[2.1627842999996574],['target'],2,001,2024-10-10_14h32.38.856,Visual search exp,2024.1.5,None,2024-10-10 14h32.52.917479 +0530,
3,0,3,0,8.858729999999923,,8.827547399999276,5,8.858729999999923,8.858729999999923,0.01937510000061593,9.86368450000009,10.824160699999993,[0.3333333333333333],[-0.3351851851851852],[1],[0],[0],[1.9776907999994364],['target'],2,001,2024-10-10_14h32.38.856,Visual search exp,2024.1.5,None,2024-10-10 14h32.52.917479 +0530,
4,0,4,0,10.90360099999998,,10.828823400000147,10,10.90360099999998,10.90360099999998,0.05075680000027205,11.913292399999591,12.822575999999572,[-0.29074074074074074],[-0.023148148148148147],[1],[0],[0],[1.9433418000007805],['target'],2,001,2024-10-10_14h32.38.856,Visual search exp,2024.1.5,None,2024-10-10 14h32.52.917479 +0530,
5,0,5,0,12.867637599999398,,12.82738849999987,5,12.867637599999398,12.867637599999398,0.0243718000001536,13.876497899999777,14.294861100000162,[0.20555555555555555],[-0.03333333333333333],[1],[0],[0],[1.4436986000000616],[],2,001,2024-10-10_14h32.38.856,Visual search exp,2024.1.5,None,2024-10-10 14h32.52.917479 +0530,
6,0,6,0,14.349725999999464,,14.298850299999685,10,14.349725999999464,14.349725999999464,0.03430800000023737,15.357051599999977,17.08663720000004,[-0.044444444444444446],[0.42962962962962964],[1],[0],[0],[2.7537444999998115],['target'],2,001,2024-10-10_14h32.38.856,Visual search exp,2024.1.5,None,2024-10-10 14h32.52.917479 +0530,
7,0,7,0,17.152185799999643,,17.0908888999993,10,17.152185799999643,17.152185799999643,0.042926600000100734,18.159367700000075,18.621011899999758,[0.19074074074074074],[0.037037037037037035],[1],[0],[0],[1.4875728999995772],['target'],2,001,2024-10-10_14h32.38.856,Visual search exp,2024.1.5,None,2024-10-10 14h32.52.917479 +0530,
8,0,8,0,18.678364200000033,,18.624802799999998,10,18.678364200000033,18.678364200000033,0.03731710000010935,19.684443600000122,20.513901299999816,[0.2935185185185185],[0.3851851851851852],[1],[0],[0],[1.85223330000008],['target'],2,001,2024-10-10_14h32.38.856,Visual search exp,2024.1.5,None,2024-10-10 14h32.52.917479 +0530,
9,0,9,0,20.558140399999502,,20.516896299999644,10,20.558140399999502,20.558140399999502,0.027193099999749393,21.565571699999964,23.29803549999997,[-0.22314814814814815],[-0.37777777777777777],[1],[0],[0],[2.7541182000004483],['target'],2,001,2024-10-10_14h32.38.856,Visual search exp,2024.1.5,None,2024-10-10 14h32.52.917479 +0530,
10,0,10,0,23.372621399999844,,23.303606800000125,10,23.372621399999844,23.372621399999844,0.04958459999943443,24.383635799999865,25.380460800000037,[0.14814814814814814],[-0.12685185185185185],[1],[0],[0],[2.028041700000358],['target'],2,001,2024-10-10_14h32.38.856,Visual search exp,2024.1.5,None,2024-10-10 14h32.52.917479 +0530,
11,0,11,0,25.419787699999688,,25.384201500000017,5,25.419787699999688,25.419787699999688,0.022154700000101002,26.423155999999835,27.05845330000011,[0.04814814814814815],[-0.1],[1],[0],[0],[1.652310800000123],['target'],2,001,2024-10-10_14h32.38.856,Visual search exp,2024.1.5,None,2024-10-10 14h32.52.917479 +0530,
12,0,12,0,27.113743999999315,,27.069296900000154,5,27.113743999999315,27.113743999999315,0.029422499999782303,28.115575299999364,28.833162099999754,[0.2712962962962963],[0.21574074074074073],[1],[0],[0],[1.7355489999999918],['target'],2,001,2024-10-10_14h32.38.856,Visual search exp,2024.1.5,None,2024-10-10 14h32.52.917479 +0530,
13,0,13,0,28.874873799999477,,28.838836099999753,5,28.874873799999477,28.874873799999477,0.021612699999423057,29.8852868999993,30.786523799999486,[-0.19444444444444445],[-0.3787037037037037],[1],[0],[0],[1.9268049000002065],['target'],2,001,2024-10-10_14h32.38.856,Visual search exp,2024.1.5,None,2024-10-10 14h32.52.917479 +0530,
14,0,14,0,30.83826080000017,,30.793068199999652,5,30.83826080000017,30.83826080000017,0.028117000000747794,31.84203399999933,32.995984000000135,[0.3851851851851852],[-0.22314814814814815],[1],[0],[0],[2.175657499999943],['target'],2,001,2024-10-10_14h32.38.856,Visual search exp,2024.1.5,None,2024-10-10 14h32.52.917479 +0530,
15,0,15,0,33.03565919999983,,33.0006813,5,33.03565919999983,33.03565919999983,0.0206439000003229,34.04363620000004,35.05183699999998,[0.3425925925925926],[0.42962962962962964],[1],[0],[0],[2.030664500000057],['target'],2,001,2024-10-10_14h32.38.856,Visual search exp,2024.1.5,None,2024-10-10 14h32.52.917479 +0530,
16,0,16,0,35.11695239999972,,35.05953390000013,5,35.11695239999972,35.11695239999972,0.03733569999985775,36.13612740000008,36.676550000000134,[0.23796296296296296],[-0.3055555555555556],[1],[0],[0],[1.5806870000005802],['target'],2,001,2024-10-10_14h32.38.856,Visual search exp,2024.1.5,None,2024-10-10 14h32.52.917479 +0530,
17,0,17,0,36.748244800000066,,36.68647979999969,5,36.748244800000066,36.748244800000066,0.04135330000008253,37.75893189999988,38.78961100000015,[-0.044444444444444446],[0.33240740740740743],[1],[0],[0],[2.0636868999999933],['target'],2,001,2024-10-10_14h32.38.856,Visual search exp,2024.1.5,None,2024-10-10 14h32.52.917479 +0530,
18,0,18,0,38.84337770000002,,38.79321769999933,10,38.84337770000002,38.84337770000002,0.032954199999949196,39.85259099999985,43.05858509999962,[-0.4351851851851852],[0.38981481481481484],[1],[0],[0],[4.232837700000346],['target'],2,001,2024-10-10_14h32.38.856,Visual search exp,2024.1.5,None,2024-10-10 14h32.52.917479 +0530,
19,0,19,0,43.091913599999316,,43.06270519999998,5,43.091913599999316,43.091913599999316,0.018143199999940407,44.09407749999991,44.49502969999958,[-0.3537037037037037],[0.40370370370370373],[1],[0],[0],[1.4147494999997434],['target'],2,001,2024-10-10_14h32.38.856,Visual search exp,2024.1.5,None,2024-10-10 14h32.52.917479 +0530,
20,0,20,0,44.5305129999997,,44.49964839999939,5,44.5305129999997,44.5305129999997,0.019382800000130374,45.529854099999284,46.34773219999988,[-0.11944444444444445],[-0.23055555555555557],[1],[0],[0],[1.8293194999996558],['target'],2,001,2024-10-10_14h32.38.856,Visual search exp,2024.1.5,None,2024-10-10 14h32.52.917479 +0530,
21,0,21,0,46.4061971000001,,46.352389499999845,10,46.4061971000001,46.4061971000001,0.03790000000026339,,46.56824549999965,[-0.11944444444444445],[-0.23055555555555557],[1],[0],[0],[0.1784907999999632],[],2,001,2024-10-10_14h32.38.856,Visual search exp,2024.1.5,None,2024-10-10 14h32.52.917479 +0530,
22,0,22,0,46.60788539999976,,46.57288299999982,5,46.60788539999976,46.60788539999976,0.021897200000239536,47.60977860000003,48.69457059999968,[-0.04814814814814815],[0.08796296296296297],[1],[0],[0],[2.1003756999998586],['target'],2,001,2024-10-10_14h32.38.856,Visual search exp,2024.1.5,None,2024-10-10 14h32.52.917479 +0530,
23,0,23,0,48.72910159999992,,48.69900129999951,5,48.72910159999992,48.72910159999992,0.019146700000419514,49.728655199999594,51.01214970000001,[0.2712962962962963],[0.46574074074074073],[1],[0],[0],[2.2944635000003473],['target'],2,001,2024-10-10_14h32.38.856,Visual search exp,2024.1.5,None,2024-10-10 14h32.52.917479 +0530,
24,0,24,0,51.04766169999948,,51.01742999999988,5,51.04766169999948,51.04766169999948,0.019249500000114494,52.04801700000007,52.69912629999999,[-0.35555555555555557],[0.4009259259259259],[1],[0],[0],[1.6630239999994956],['target'],2,001,2024-10-10_14h32.38.856,Visual search exp,2024.1.5,None,2024-10-10 14h32.52.917479 +0530,
25,0,25,0,52.75897209999948,,52.70416380000006,10,52.75897209999948,52.75897209999948,0.03832610000063141,53.76741949999996,54.16378629999963,[-0.42407407407407405],[0.09907407407407408],[1],[0],[0],[1.422071799999685],['target'],2,001,2024-10-10_14h32.38.856,Visual search exp,2024.1.5,None,2024-10-10 14h32.52.917479 +0530,
26,0,26,0,54.19882119999966,,54.1683280999996,5,54.19882119999966,54.19882119999966,0.01971140000023297,55.199134099999355,56.26719719999983,[0.24259259259259258],[0.37037037037037035],[1],[0],[0],[2.0798075000002427],['target'],2,001,2024-10-10_14h32.38.856,Visual search exp,2024.1.5,None,2024-10-10 14h32.52.917479 +0530,
27,0,27,0,56.3021848999997,,56.27193819999957,5,56.3021848999997,56.3021848999997,0.019507299999531824,57.30587159999959,58.706892700000026,[-0.3537037037037037],[-0.16666666666666666],[1],[0],[0],[2.4161567999999534],['target'],2,001,2024-10-10_14h32.38.856,Visual search exp,2024.1.5,None,2024-10-10 14h32.52.917479 +0530,
28,0,28,0,58.76538639999944,,58.71138340000016,10,58.76538639999944,58.76538639999944,0.03793519999999262,59.77517129999978,60.584497299999384,[-0.1537037037037037],[0.4722222222222222],[1],[0],[0],[1.835737600000357],['target'],2,001,2024-10-10_14h32.38.856,Visual search exp,2024.1.5,None,2024-10-10 14h32.52.917479 +0530,
29,0,29,0,60.61960579999959,,60.58887809999942,5,60.61960579999959,60.61960579999959,0.01877610000065033,61.61933189999945,62.75381819999984,[-0.4842592592592593],[-0.37592592592592594],[1],[0],[0],[2.146736400000009],['target'],2,001,2024-10-10_14h32.38.856,Visual search exp,2024.1.5,None,2024-10-10 14h32.52.917479 +0530,
30,0,30,0,62.81227179999951,,62.75815919999968,10,62.81227179999951,62.81227179999951,0.03819320000002335,63.819990699999835,67.56779099999949,[-0.08611111111111111],[-0.387037037037037],[1],[0],[0],[4.77190150000024],['target'],2,001,2024-10-10_14h32.38.856,Visual search exp,2024.1.5,None,2024-10-10 14h32.52.917479 +0530,
31,0,31,0,67.62821359999998,,67.57261139999991,10,67.62821359999998,67.62821359999998,0.03908970000065892,68.64448139999968,69.29711869999937,[0.4842592592592593],[0.3611111111111111],[1],[0],[0],[1.686126200000217],['target'],2,001,2024-10-10_14h32.38.856,Visual search exp,2024.1.5,None,2024-10-10 14h32.52.917479 +0530,
32,0,32,0,69.35536839999986,,69.3014290000001,10,69.35536839999986,69.35536839999986,0.0369196000001466,70.35698729999967,72.64707029999954,[0.17962962962962964],[-0.42685185185185187],[1],[0],[0],[3.3093055000008462],['target'],2,001,2024-10-10_14h32.38.856,Visual search exp,2024.1.5,None,2024-10-10 14h32.52.917479 +0530,
33,0,33,0,72.7049447999998,,72.65145260000008,10,72.7049447999998,72.7049447999998,0.037192099999629136,73.71134959999927,74.71094369999992,[-0.1787037037037037],[-0.15648148148148147],[1],[0],[0],[2.0228706999996575],['target'],2,001,2024-10-10_14h32.38.856,Visual search exp,2024.1.5,None,2024-10-10 14h32.52.917479 +0530,
34,0,34,0,74.74671069999931,,74.71541809999962,5,74.74671069999931,74.74671069999931,0.019710399999894435,75.74597850000009,78.74529159999929,[-0.24722222222222223],[-0.45740740740740743],[1],[0],[0],[4.010795000000144],['target'],2,001,2024-10-10_14h32.38.856,Visual search exp,2024.1.5,None,2024-10-10 14h32.52.917479 +0530,
35,0,35,0,78.7804344999995,,78.74967860000015,5,78.7804344999995,78.7804344999995,0.01926739999998972,79.78023329999996,82.32966469999974,[0.1111111111111111],[-0.41574074074074074],[1],[0],[0],[3.5613157999996474],['target'],2,001,2024-10-10_14h32.38.856,Visual search exp,2024.1.5,None,2024-10-10 14h32.52.917479 +0530,
36,0,36,0,82.39061539999966,,82.33405519999997,10,82.39061539999966,82.39061539999966,0.03851570000006177,83.39295029999994,83.87099760000001,[0.27314814814814814],[-0.008333333333333333],[1],[0],[0],[1.4988928000002488],['target'],2,001,2024-10-10_14h32.38.856,Visual search exp,2024.1.5,None,2024-10-10 14h32.52.917479 +0530,
37,0,37,0,83.90809769999942,,83.87552589999996,5,83.90809769999942,83.90809769999942,0.020688999999947555,84.91171200000008,86.21156319999955,[-0.07037037037037037],[0.22592592592592592],[1],[0],[0],[2.3159821999997803],['target'],2,001,2024-10-10_14h32.38.856,Visual search exp,2024.1.5,None,2024-10-10 14h32.52.917479 +0530,
38,0,38,0,86.2465400000001,,86.21632580000005,5,86.2465400000001,86.2465400000001,0.019219100000555045,87.24712309999995,88.33157969999957,[0.4898148148148148],[-0.013888888888888888],[1],[0],[0],[2.096617199999855],['target'],2,001,2024-10-10_14h32.38.856,Visual search exp,2024.1.5,None,2024-10-10 14h32.52.917479 +0530,
39,0,39,0,88.36615019999954,,88.33612209999956,5,88.36615019999954,88.36615019999954,0.01876670000001468,89.36594259999947,89.99982009999985,[0.18981481481481483],[0.38333333333333336],[1],[0],[0],[1.6455112999992707],['target'],2,001,2024-10-10_14h32.38.856,Visual search exp,2024.1.5,None,2024-10-10 14h32.52.917479 +0530,
40,0,40,0,90.05680200000006,,90.00433280000016,10,90.05680200000006,90.05680200000006,0.03718109999954322,91.0598571999999,93.22836879999977,[0.39444444444444443],[-0.225],[1],[0],[0],[3.1874964999997246],['target'],2,001,2024-10-10_14h32.38.856,Visual search exp,2024.1.5,None,2024-10-10 14h32.52.917479 +0530,
41,0,41,0,93.26269059999959,,93.23267839999971,5,93.26269059999959,93.26269059999959,0.01935429999957705,94.26395090000005,94.91563719999976,[0.1175925925925926],[-0.18333333333333332],[1],[0],[0],[1.6641198000006625],['target'],2,001,2024-10-10_14h32.38.856,Visual search exp,2024.1.5,None,2024-10-10 14h32.52.917479 +0530,
42,0,42,0,94.95368580000013,,94.92038799999955,5,94.95368580000013,94.95368580000013,0.02197359999991022,,95.8185026000001,[0.1175925925925926],[-0.18333333333333332],[1],[0],[0],[0.8767737999996825],[],2,001,2024-10-10_14h32.38.856,Visual search exp,2024.1.5,None,2024-10-10 14h32.52.917479 +0530,
43,0,43,0,95.87656389999938,,95.82295889999932,10,95.87656389999938,95.87656389999938,0.03746229999978823,96.87744310000016,98.11619059999975,[-0.14537037037037037],[-0.24722222222222223],[1],[0],[0],[2.25632829999995],['target'],2,001,2024-10-10_14h32.38.856,Visual search exp,2024.1.5,None,2024-10-10 14h32.52.917479 +0530,
44,0,44,0,98.17705919999935,,98.12087829999928,10,98.17705919999935,98.17705919999935,0.03952300000037212,99.18182489999981,100.28443289999996,[0.25925925925925924],[-0.2898148148148148],[1],[0],[0],[2.1246227000001454],['target'],2,001,2024-10-10_14h32.38.856,Visual search exp,2024.1.5,None,2024-10-10 14h32.52.917479 +0530,
45,0,45,0,100.31925469999987,,100.28904499999953,5,100.31925469999987,100.31925469999987,0.019129099999190657,101.32270849999986,102.05699149999964,[-0.14166666666666666],[-0.08888888888888889],[1],[0],[0],[1.7493336999996245],['target'],2,001,2024-10-10_14h32.38.856,Visual search exp,2024.1.5,None,2024-10-10 14h32.52.917479 +0530,
46,0,46,0,102.11575709999943,,102.06161329999941,10,102.11575709999943,102.11575709999943,0.03676679999989574,103.12637899999936,104.4391515999996,[-0.2074074074074074],[-0.2175925925925926],[1],[0],[0],[2.341388100000586],['target'],2,001,2024-10-10_14h32.38.856,Visual search exp,2024.1.5,None,2024-10-10 14h32.52.917479 +0530,
47,0,47,0,104.47457229999964,,104.4436928999994,5,104.47457229999964,104.47457229999964,0.019367300000340038,105.48283790000005,106.01773109999976,[-0.1388888888888889],[0.2222222222222222],[1],[0],[0],[1.5552511000005325],['target'],2,001,2024-10-10_14h32.38.856,Visual search exp,2024.1.5,None,2024-10-10 14h32.52.917479 +0530,
48,0,48,0,106.07469239999955,,106.02249289999963,10,106.07469239999955,106.07469239999955,0.03639099999963946,107.0757765999997,107.77488869999979,[-0.41203703703703703],[0.05277777777777778],[1],[0],[0],[1.7166913000000932],['target'],2,001,2024-10-10_14h32.38.856,Visual search exp,2024.1.5,None,2024-10-10 14h32.52.917479 +0530,
49,0,49,0,107.8115399999997,,107.77986220000003,5,107.8115399999997,107.8115399999997,0.01928649999990739,108.81788779999988,109.6526887,[0.39537037037037037],[-0.22037037037037038],[1],[0],[0],[1.8541923999991923],['target'],2,001,2024-10-10_14h32.38.856,Visual search exp,2024.1.5,None,2024-10-10 14h32.52.917479 +0530,
50,0,50,0,109.71075579999979,,109.65750429999935,10,109.71075579999979,109.71075579999979,0.0373079000000871,110.72182599999996,112.77701569999954,[-0.03888888888888889],[-0.05462962962962963],[1],[0],[0],[3.0826477000000523],['target'],2,001,2024-10-10_14h32.38.856,Visual search exp,2024.1.5,None,2024-10-10 14h32.52.917479 +0530,
51,0,51,0,112.81371260000014,,112.78162909999992,5,112.81371260000014,112.81371260000014,0.020888999999442603,113.8269021999995,115.3942264999996,[0.15],[-0.4601851851851852],[1],[0],[0],[2.5921895000001314],['target'],2,001,2024-10-10_14h32.38.856,Visual search exp,2024.1.5,None,2024-10-10 14h32.52.917479 +0530,
52,0,52,0,115.45155840000007,,115.39890669999932,10,115.45155840000007,115.45155840000007,0.036884099999952014,116.45971920000011,117.78375719999985,[-0.40925925925925927],[0.1],[1],[0],[0],[2.3485202000001664],['target'],2,001,2024-10-10_14h32.38.856,Visual search exp,2024.1.5,None,2024-10-10 14h32.52.917479 +0530,
53,0,53,0,117.81841259999965,,117.78807700000016,5,117.81841259999965,117.81841259999965,0.019464500000140106,118.81861599999957,119.20304459999988,[0.16666666666666666],[-0.09722222222222222],[1],[0],[0],[1.3960643000000346],['target'],2,001,2024-10-10_14h32.38.856,Visual search exp,2024.1.5,None,2024-10-10 14h32.52.917479 +0530,
54,0,54,0,119.26118640000004,,119.20764059999965,10,119.26118640000004,119.26118640000004,0.0369170000003578,120.2639892999996,120.61954049999986,[0.075],[0.18888888888888888],[1],[0],[0],[1.3755746000006184],['target'],2,001,2024-10-10_14h32.38.856,Visual search exp,2024.1.5,None,2024-10-10 14h32.52.917479 +0530,
55,0,55,0,120.67494459999944,,120.62386509999942,10,120.67494459999944,120.67494459999944,0.036350299999867275,121.6876171999993,122.46279709999999,[-0.25833333333333336],[0.13703703703703704],[1],[0],[0],[1.8031640999997762],['target'],2,001,2024-10-10_14h32.38.856,Visual search exp,2024.1.5,None,2024-10-10 14h32.52.917479 +0530,
56,0,56,0,122.52191239999956,,122.46758849999969,10,122.52191239999956,122.52191239999956,0.03835679999974673,123.53436090000014,125.6140061999995,[-0.05092592592592592],[0.41574074074074074],[1],[0],[0],[3.108640800000103],['target'],2,001,2024-10-10_14h32.38.856,Visual search exp,2024.1.5,None,2024-10-10 14h32.52.917479 +0530,
57,0,57,0,125.65219179999985,,125.61850789999971,5,125.65219179999985,125.65219179999985,0.020089999999981956,126.66574849999961,127.46669620000011,[-0.14444444444444443],[0.07685185185185185],[1],[0],[0],[1.8286914999998771],['target'],2,001,2024-10-10_14h32.38.856,Visual search exp,2024.1.5,None,2024-10-10 14h32.52.917479 +0530,
58,0,58,0,127.50206179999986,,127.47116300000016,5,127.50206179999986,127.50206179999986,0.020024000000375963,128.50094219999937,129.5851007000001,[0.2833333333333333],[0.19814814814814816],[1],[0],[0],[2.0945184999991397],['target'],2,001,2024-10-10_14h32.38.856,Visual search exp,2024.1.5,None,2024-10-10 14h32.52.917479 +0530,
59,0,59,0,129.62033509999947,,129.58961799999997,5,129.62033509999947,129.62033509999947,0.0188970999997764,130.62048539999978,131.72178900000017,[0.3925925925925926],[-0.4601851851851852],[1],[0],[0],[2.1139038999999684],['target'],2,001,2024-10-10_14h32.38.856,Visual search exp,2024.1.5,None,2024-10-10 14h32.52.917479 +0530,
60,0,60,0,131.76247779999994,,131.7262381999999,5,131.76247779999994,131.76247779999994,0.02436020000004646,132.77294529999926,133.30754669999988,[0.21944444444444444],[0.33055555555555555],[1],[0],[0],[1.557547400000658],['target'],2,001,2024-10-10_14h32.38.856,Visual search exp,2024.1.5,None,2024-10-10 14h32.52.917479 +0530,
61,0,61,0,133.34289660000013,,133.31217190000007,5,133.34289660000013,133.34289660000013,0.018373199999587086,134.34273810000013,134.89421799999946,[-0.15092592592592594],[-0.22685185185185186],[1],[0],[0],[1.56414390000009],['target'],2,001,2024-10-10_14h32.38.856,Visual search exp,2024.1.5,None,2024-10-10 14h32.52.917479 +0530,
62,0,62,0,134.93085129999963,,134.89890839999953,5,134.93085129999963,134.93085129999963,0.01967530000001716,135.94567589999951,137.02912019999985,[-0.2675925925925926],[0.37777777777777777],[1],[0],[0],[2.1111658999998326],['target'],2,001,2024-10-10_14h32.38.856,Visual search exp,2024.1.5,None,2024-10-10 14h32.52.917479 +0530,
63,0,63,0,137.06410959999994,,137.03362579999975,5,137.06410959999994,137.06410959999994,0.01929180000024644,138.06474509999953,138.5990965000001,[0.03981481481481482],[0.35185185185185186],[1],[0],[0],[1.546790499999588],['target'],2,001,2024-10-10_14h32.38.856,Visual search exp,2024.1.5,None,2024-10-10 14h32.52.917479 +0530,
64,0,64,0,138.65621089999968,,138.60361449999982,10,138.65621089999968,138.65621089999968,0.03695220000008703,139.65920279999955,140.86540139999943,[0.1962962962962963],[0.002777777777777778],[1],[0],[0],[2.2254197000002023],['target'],2,001,2024-10-10_14h32.38.856,Visual search exp,2024.1.5,None,2024-10-10 14h32.52.917479 +0530,
65,0,65,0,140.90060600000015,,140.86990509999941,5,140.90060600000015,140.90060600000015,0.019552300000214018,141.9004673999998,142.76816249999956,[0.375],[0.2074074074074074],[1],[0],[0],[1.8792758999998114],['target'],2,001,2024-10-10_14h32.38.856,Visual search exp,2024.1.5,None,2024-10-10 14h32.52.917479 +0530,
66,0,66,0,142.80391689999942,,142.77257219999956,5,142.80391689999942,142.80391689999942,0.019615199999861943,143.8032346,144.08778189999975,[0.23148148148148148],[0.275],[1],[0],[0],[1.296317100000124],['target'],2,001,2024-10-10_14h32.38.856,Visual search exp,2024.1.5,None,2024-10-10 14h32.52.917479 +0530,
67,0,67,0,144.14499869999963,,144.09208519999993,10,144.14499869999963,144.14499869999963,0.03726360000018758,145.15058059999956,146.77247399999942,[-0.08333333333333333],[-0.31666666666666665],[1],[0],[0],[2.6437130999993315],['target'],2,001,2024-10-10_14h32.38.856,Visual search exp,2024.1.5,None,2024-10-10 14h32.52.917479 +0530,
68,0,68,0,146.83090769999944,,146.7774448,10,146.83090769999944,146.83090769999944,0.0377357999996093,147.84031640000012,148.31717409999965,[0.04351851851851852],[-0.29259259259259257],[1],[0],[0],[1.5026183999998466],['target'],2,001,2024-10-10_14h32.38.856,Visual search exp,2024.1.5,None,2024-10-10 14h32.52.917479 +0530,
69,0,69,0,148.37482519999958,,148.32162659999995,10,148.37482519999958,148.37482519999958,0.036885099999381055,149.38771910000014,150.3021546,[0.26296296296296295],[0.362962962962963],[1],[0],[0],[1.9442106999995303],['target'],2,001,2024-10-10_14h32.38.856,Visual search exp,2024.1.5,None,2024-10-10 14h32.52.917479 +0530,
70,0,70,0,150.35940299999947,,150.3064676999993,10,150.35940299999947,150.35940299999947,0.03696750000017346,151.36184439999943,153.11494709999988,[-0.018518518518518517],[-0.42962962962962964],[1],[0],[0],[2.7720768999997745],['target'],2,001,2024-10-10_14h32.38.856,Visual search exp,2024.1.5,None,2024-10-10 14h32.52.917479 +0530,
71,0,71,0,153.1723607999993,,153.11942529999942,10,153.1723607999993,153.1723607999993,0.037198199999693315,154.18031389999942,155.58204659999956,[0.03981481481481482],[-0.30833333333333335],[1],[0],[0],[2.4261294000007183],['target'],2,001,2024-10-10_14h32.38.856,Visual search exp,2024.1.5,None,2024-10-10 14h32.52.917479 +0530,
72,0,72,0,155.64106790000005,,155.58638809999957,10,155.64106790000005,155.64106790000005,0.03744300000016665,156.6526445999998,157.63748059999944,[0.2601851851851852],[0.337037037037037],[1],[0],[0],[2.0142126999999164],['target'],2,001,2024-10-10_14h32.38.856,Visual search exp,2024.1.5,None,2024-10-10 14h32.52.917479 +0530,
73,0,73,0,157.69598119999955,,157.6420103999999,10,157.69598119999955,157.69598119999955,0.03801999999996042,158.71000829999957,159.28421009999965,[-0.3907407407407407],[0.412962962962963],[1],[0],[0],[1.6047928000007232],['target'],2,001,2024-10-10_14h32.38.856,Visual search exp,2024.1.5,None,2024-10-10 14h32.52.917479 +0530,
74,0,74,0,159.34317800000008,,159.28868059999968,10,159.34317800000008,159.34317800000008,0.03530210000008083,160.36488180000015,161.5461865999996,[-0.3037037037037037],[-0.014814814814814815],[1],[0],[0],[2.2227646000001187],['target'],2,001,2024-10-10_14h32.38.856,Visual search exp,2024.1.5,None,2024-10-10 14h32.52.917479 +0530,
75,0,75,0,161.58004769999934,,161.55057159999978,5,161.58004769999934,161.58004769999934,0.0190162999997483,162.58424659999946,163.00246719999996,[0.026851851851851852],[-0.14537037037037037],[1],[0],[0],[1.4334515000000465],['target'],2,001,2024-10-10_14h32.38.856,Visual search exp,2024.1.5,None,2024-10-10 14h32.52.917479 +0530,
76,0,76,0,163.0632201999997,,163.00692290000006,10,163.0632201999997,163.0632201999997,0.03805689999990136,164.06699599999956,165.49845259999984,[0.14351851851851852],[0.14722222222222223],[1],[0],[0],[2.4540394999994533],['target'],2,001,2024-10-10_14h32.38.856,Visual search exp,2024.1.5,None,2024-10-10 14h32.52.917479 +0530,
77,0,77,0,165.5630754999993,,165.50292629999967,10,165.5630754999993,165.5630754999993,0.0408674999998766,166.5675199999996,168.20996949999972,[0.4203703703703704],[-0.19814814814814816],[1],[0],[0],[2.666860700000143],['target'],2,001,2024-10-10_14h32.38.856,Visual search exp,2024.1.5,None,2024-10-10 14h32.52.917479 +0530,
78,0,78,0,168.2705877999997,,168.2146585999999,10,168.2705877999997,168.2705877999997,0.039507899999989604,169.27851079999982,171.47361939999973,[0.05092592592592592],[0.4166666666666667],[1],[0],[0],[3.2200506999997742],['target'],2,001,2024-10-10_14h32.38.856,Visual search exp,2024.1.5,None,2024-10-10 14h32.52.917479 +0530,
79,0,79,0,171.5092440999997,,171.4781863999997,5,171.5092440999997,171.5092440999997,0.019988199999716016,172.5086836999999,173.02683679999973,[0.3277777777777778],[0.34444444444444444],[1],[0],[0],[1.5292427999993379],['target'],2,001,2024-10-10_14h32.38.856,Visual search exp,2024.1.5,None,2024-10-10 14h32.52.917479 +0530,
80,0,80,0,173.06169219999992,,173.03146560000005,5,173.06169219999992,173.06169219999992,0.01914749999923515,174.0615815000001,174.21341979999943,[0.4074074074074074],[0.2898148148148148],[1],[0],[0],[1.1633052999995925],['target'],2,001,2024-10-10_14h32.38.856,Visual search exp,2024.1.5,None,2024-10-10 14h32.52.917479 +0530,
81,0,81,0,174.25129409999954,,174.21811459999935,5,174.25129409999954,174.25129409999954,0.02030549999926734,175.26478359999965,175.94937440000012,[0.4305555555555556],[-0.2037037037037037],[1],[0],[0],[1.7115552000004755],['target'],2,001,2024-10-10_14h32.38.856,Visual search exp,2024.1.5,None,2024-10-10 14h32.52.917479 +0530,
82,0,82,0,176.00540049999927,,175.9537290999997,10,176.00540049999927,176.00540049999927,0.035914799999773095,177.01252879999993,177.66859990000012,[0.44722222222222224],[0.019444444444444445],[1],[0],[0],[1.6794411999999284],['target'],2,001,2024-10-10_14h32.38.856,Visual search exp,2024.1.5,None,2024-10-10 14h32.52.917479 +0530,
83,0,83,0,177.70374110000012,,177.67352299999948,5,177.70374110000012,177.70374110000012,0.01924090000011347,178.70311539999966,179.9703757999996,[-0.5],[-0.41944444444444445],[1],[0],[0],[2.2782555000003413],['target'],2,001,2024-10-10_14h32.38.856,Visual search exp,2024.1.5,None,2024-10-10 14h32.52.917479 +0530,
84,0,84,0,180.0278830999996,,179.9746955999999,10,180.0278830999996,180.0278830999996,0.03648860000066634,181.04300409999996,181.40570819999994,[0.375],[0.19907407407407407],[1],[0],[0],[1.3949923999998646],['target'],2,001,2024-10-10_14h32.38.856,Visual search exp,2024.1.5,None,2024-10-10 14h32.52.917479 +0530,
85,0,85,0,181.46299550000003,,181.41017629999988,10,181.46299550000003,181.46299550000003,0.03682500000013533,182.4761214,184.40543249999973,[0.2861111111111111],[-0.27870370370370373],[1],[0],[0],[2.9590018999997483],['target'],2,001,2024-10-10_14h32.38.856,Visual search exp,2024.1.5,None,2024-10-10 14h32.52.917479 +0530,
86,0,86,0,184.4426279999998,,184.40971929999978,5,184.4426279999998,184.4426279999998,0.02009710000038467,185.4551222,185.9394257999993,[0.2212962962962963],[-0.06666666666666667],[1],[0],[0],[1.5101852999996481],['target'],2,001,2024-10-10_14h32.38.856,Visual search exp,2024.1.5,None,2024-10-10 14h32.52.917479 +0530,
87,0,87,0,185.9998655999998,,185.9438156999995,10,185.9998655999998,185.9998655999998,0.03853799999978946,187.0093913999999,187.64993409999988,[0.3314814814814815],[0.08518518518518518],[1],[0],[0],[1.6681753000002573],['target'],2,001,2024-10-10_14h32.38.856,Visual search exp,2024.1.5,None,2024-10-10 14h32.52.917479 +0530,
88,0,88,0,187.68501939999987,,187.65445949999958,5,187.68501939999987,187.68501939999987,0.01947810000001482,188.68498809999983,189.06960199999958,[0.30833333333333335],[0.3425925925925926],[1],[0],[0],[1.3962590000001],['target'],2,001,2024-10-10_14h32.38.856,Visual search exp,2024.1.5,None,2024-10-10 14h32.52.917479 +0530,
89,0,89,0,189.12902459999987,,189.07425199999943,10,189.12902459999987,189.12902459999987,0.038433599999734724,,190.0560974,[0.3314814814814815],[0.2796296296296296],[1],[0],[0],[0.943908499999452],['target'],2,001,2024-10-10_14h32.38.856,Visual search exp,2024.1.5,None,2024-10-10 14h32.52.917479 +0530,
90,0,90,0,190.09257059999982,,190.06123399999979,5,190.09257059999982,190.09257059999982,0.020222999999532476,191.0949885,192.44486580000012,[-0.04814814814814815],[-0.41203703703703703],[1],[0],[0],[2.364005200000065],['target'],2,001,2024-10-10_14h32.38.856,Visual search exp,2024.1.5,None,2024-10-10 14h32.52.917479 +0530,
91,0,91,0,192.4799742999994,,192.4493120999996,5,192.4799742999994,192.4799742999994,0.01952609999989363,193.48058630000014,197.57902169999943,[-0.3453703703703704],[-0.3861111111111111],[1],[0],[0],[5.110745599999973],['target'],2,001,2024-10-10_14h32.38.856,Visual search exp,2024.1.5,None,2024-10-10 14h32.52.917479 +0530,
92,0,92,0,197.61480630000005,,197.58361859999968,5,197.61480630000005,197.61480630000005,0.019553999999516236,198.63033540000015,202.6785747999993,[0.14351851851851852],[0.11203703703703703],[1],[0],[0],[5.075969399999849],['target'],2,001,2024-10-10_14h32.38.856,Visual search exp,2024.1.5,None,2024-10-10 14h32.52.917479 +0530,
93,0,93,0,202.73603529999946,,202.6830633999998,10,202.73603529999946,202.73603529999946,0.03758579999976064,203.74181259999932,204.41250909999962,[-0.20185185185185187],[0.34444444444444444],[1],[0],[0],[1.6925943000005645],['target'],2,001,2024-10-10_14h32.38.856,Visual search exp,2024.1.5,None,2024-10-10 14h32.52.917479 +0530,
94,0,94,0,204.44911799999954,,204.4176985999993,5,204.44911799999954,204.44911799999954,0.019096500000159722,205.45625759999984,206.19057329999941,[-0.15462962962962962],[-0.09722222222222222],[1],[0],[0],[1.7544797999998991],['target'],2,001,2024-10-10_14h32.38.856,Visual search exp,2024.1.5,None,2024-10-10 14h32.52.917479 +0530,
95,0,95,0,206.2505143999997,,206.19493280000006,10,206.2505143999997,206.2505143999997,0.03800379999938741,207.26540380000006,207.64460520000011,[-0.4444444444444444],[-0.017592592592592594],[1],[0],[0],[1.4122537000002922],['target'],2,001,2024-10-10_14h32.38.856,Visual search exp,2024.1.5,None,2024-10-10 14h32.52.917479 +0530,
96,0,96,0,207.68031299999984,,207.6494047999995,5,207.68031299999984,207.68031299999984,0.019364499999937834,208.6897973999994,208.95859810000002,[-0.46574074074074073],[0.008333333333333333],[1],[0],[0],[1.2906099000001632],['target'],2,001,2024-10-10_14h32.38.856,Visual search exp,2024.1.5,None,2024-10-10 14h32.52.917479 +0530,
97,0,97,0,209.01733539999987,,208.9629888999998,10,209.01733539999987,209.01733539999987,0.03630180000072869,210.03219199999967,210.93950629999927,[0.08981481481481482],[0.4212962962962963],[1],[0],[0],[1.9408008000000336],['target'],2,001,2024-10-10_14h32.38.856,Visual search exp,2024.1.5,None,2024-10-10 14h32.52.917479 +0530,
98,0,98,0,210.99874569999974,,210.94454210000004,10,210.99874569999974,210.99874569999974,0.0379901999995127,212.01201159999982,212.83875179999995,[0.30648148148148147],[-0.08055555555555556],[1],[0],[0],[1.856894000000466],['target'],2,001,2024-10-10_14h32.38.856,Visual search exp,2024.1.5,None,2024-10-10 14h32.52.917479 +0530,
99,0,99,0,212.8972801,,212.84361669999998,10,212.8972801,212.8972801,0.03767729999981384,213.9046460999998,214.6972366,[0.30925925925925923],[-0.17777777777777778],[1],[0],[0],[1.8164516999995612],['target'],2,001,2024-10-10_14h32.38.856,Visual search exp,2024.1.5,None,2024-10-10 14h32.52.917479 +0530,
100,0,100,0,214.73197720000007,,214.70162509999955,5,214.73197720000007,214.73197720000007,0.01933259999987058,215.7471316000001,217.1646594999993,[-0.36203703703703705],[0.43796296296296294],[1],[0],[0],[2.444279999999708],['target'],2,001,2024-10-10_14h32.38.856,Visual search exp,2024.1.5,None,2024-10-10 14h32.52.917479 +0530,
101,0,101,0,217.19975259999956,,217.1691041999993,5,217.19975259999956,217.19975259999956,0.019513999999617226,218.1993840999994,219.49985509999988,[-0.2759259259259259],[-0.31666666666666665],[1],[0],[0],[2.3117442000002484],['target'],2,001,2024-10-10_14h32.38.856,Visual search exp,2024.1.5,None,2024-10-10 14h32.52.917479 +0530,
102,0,102,0,219.53715079999984,,219.50497610000002,5,219.53715079999984,219.53715079999984,0.02137459999994462,220.53722969999944,221.95435009999983,[0.21666666666666667],[0.08981481481481482],[1],[0],[0],[2.4285087999996904],['target'],2,001,2024-10-10_14h32.38.856,Visual search exp,2024.1.5,None,2024-10-10 14h32.52.917479 +0530,
103,0,103,0,221.98931589999938,,221.95913779999955,5,221.98931589999938,221.98931589999938,0.019023099999685655,222.98930949999976,223.7082178999999,[0.01574074074074074],[-0.2111111111111111],[1],[0],[0],[1.7305372000000716],['target'],2,001,2024-10-10_14h32.38.856,Visual search exp,2024.1.5,None,2024-10-10 14h32.52.917479 +0530,
104,0,104,0,223.76413129999946,,223.71607959999983,5,223.76413129999946,223.76413129999946,0.03256579999924725,224.7630376999996,225.51339819999976,[-0.3472222222222222],[0.4305555555555556],[1],[0],[0],[1.7660452000000078],['target'],2,001,2024-10-10_14h32.38.856,Visual search exp,2024.1.5,None,2024-10-10 14h32.52.917479 +0530,
105,0,105,0,225.5805793999998,,225.51774990000013,10,225.5805793999998,225.5805793999998,0.04766930000005232,226.5831404999999,227.27421989999948,[0.12407407407407407],[0.20092592592592592],[1],[0],[0],[1.7093505000002551],['target'],2,001,2024-10-10_14h32.38.856,Visual search exp,2024.1.5,None,2024-10-10 14h32.52.917479 +0530,
106,0,106,0,227.33203299999968,,227.27894409999953,10,227.33203299999968,227.33203299999968,0.037362600000051316,228.34436279999954,229.4600934,[0.21296296296296297],[0.44351851851851853],[1],[0],[0],[2.144325299999764],['target'],2,001,2024-10-10_14h32.38.856,Visual search exp,2024.1.5,None,2024-10-10 14h32.52.917479 +0530,
107,0,107,0,229.5162577000001,,229.4643704,10,229.5162577000001,229.5162577000001,0.035260500000731554,230.53001270000004,232.3235082000001,[0.053703703703703705],[-0.2916666666666667],[1],[0],[0],[2.8244495999997525],['target'],2,001,2024-10-10_14h32.38.856,Visual search exp,2024.1.5,None,2024-10-10 14h32.52.917479 +0530,
108,0,108,0,232.38119019999976,,232.3279309999998,10,232.38119019999976,232.38119019999976,0.03666550000070856,233.39870599999995,234.49153269999988,[-0.45],[0.09722222222222222],[1],[0],[0],[2.127532400000746],['target'],2,001,2024-10-10_14h32.38.856,Visual search exp,2024.1.5,None,2024-10-10 14h32.52.917479 +0530,
109,0,109,0,234.54699399999936,,234.49607219999962,10,234.54699399999936,234.54699399999936,0.03550660000018979,235.55930949999947,237.6460589999997,[-0.4527777777777778],[-0.22777777777777777],[1],[0],[0],[3.115050400000655],['target'],2,001,2024-10-10_14h32.38.856,Visual search exp,2024.1.5,None,2024-10-10 14h32.52.917479 +0530,
110,0,110,0,237.70469599999979,,237.6509062999994,10,237.70469599999979,237.70469599999979,0.03761650000069494,238.71428539999943,239.44321789999958,[0.08333333333333333],[0.38796296296296295],[1],[0],[0],[1.7552533000007315],['target'],2,001,2024-10-10_14h32.38.856,Visual search exp,2024.1.5,None,2024-10-10 14h32.52.917479 +0530,
111,0,111,0,239.47639960000015,,239.4476294999995,5,239.47639960000015,239.47639960000015,0.01807600000029197,240.4779392999999,241.56185879999975,[0.09537037037037037],[-0.31574074074074077],[1],[0],[0],[2.096741800000018],['target'],2,001,2024-10-10_14h32.38.856,Visual search exp,2024.1.5,None,2024-10-10 14h32.52.917479 +0530,
112,0,112,0,241.59569190000002,,241.56615059999967,5,241.59569190000002,241.59569190000002,0.0184558000000834,242.59680679999929,243.2642563999998,[-0.22685185185185186],[0.003703703703703704],[1],[0],[0],[1.6802895999999237],['target'],2,001,2024-10-10_14h32.38.856,Visual search exp,2024.1.5,None,2024-10-10 14h32.52.917479 +0530,
113,0,113,0,243.2983538999997,,243.2686490999995,5,243.2983538999997,243.2983538999997,0.019119499999760592,244.29983529999936,244.71804249999968,[0.17777777777777778],[0.006481481481481481],[1],[0],[0],[1.4308507000005193],['target'],2,001,2024-10-10_14h32.38.856,Visual search exp,2024.1.5,None,2024-10-10 14h32.52.917479 +0530,
114,0,114,0,244.7530444999993,,244.72277880000001,5,244.7530444999993,244.7530444999993,0.019088099999862607,245.7525716,246.3536981999996,[0.3712962962962963],[-0.1814814814814815],[1],[0],[0],[1.6124539000002187],['target'],2,001,2024-10-10_14h32.38.856,Visual search exp,2024.1.5,None,2024-10-10 14h32.52.917479 +0530,
115,0,115,0,246.38849779999964,,246.35828949999996,5,246.38849779999964,246.38849779999964,0.019100299999990966,247.38894129999971,248.04063359999964,[0.25555555555555554],[0.3287037037037037],[1],[0],[0],[1.6637956000004124],['target'],2,001,2024-10-10_14h32.38.856,Visual search exp,2024.1.5,None,2024-10-10 14h32.52.917479 +0530,
116,0,116,0,248.0749433000001,,248.04523770000014,5,248.0749433000001,248.0749433000001,0.0189301999998861,249.07478099999935,250.4915860000001,[-0.4305555555555556],[-0.007407407407407408],[1],[0],[0],[2.4280266999994637],['target'],2,001,2024-10-10_14h32.38.856,Visual search exp,2024.1.5,None,2024-10-10 14h32.52.917479 +0530,
117,0,117,0,250.5263113000001,,250.49631429999954,5,250.5263113000001,250.5263113000001,0.018912499999714782,251.52724409999973,252.02790149999964,[-0.4361111111111111],[0.18703703703703703],[1],[0],[0],[1.5133217000002332],['target'],2,001,2024-10-10_14h32.38.856,Visual search exp,2024.1.5,None,2024-10-10 14h32.52.917479 +0530,
118,0,118,0,252.08519819999947,,252.03237439999975,10,252.08519819999947,252.08519819999947,0.03670650000003661,253.09949359999973,254.05330090000007,[0.2537037037037037],[0.30092592592592593],[1],[0],[0],[1.9847185999997237],['target'],2,001,2024-10-10_14h32.38.856,Visual search exp,2024.1.5,None,2024-10-10 14h32.52.917479 +0530,
119,0,119,0,254.10941339999954,,254.05783989999964,10,254.10941339999954,254.10941339999954,0.036242700000002515,255.1080277000001,256.4168013999997,[-0.16944444444444445],[-0.20925925925925926],[1],[0],[0],[2.3232898999995086],['target'],2,001,2024-10-10_14h32.38.856,Visual search exp,2024.1.5,None,2024-10-10 14h32.52.917479 +0530,
120,0,120,0,256.4530619999996,,256.4217278999995,5,256.4530619999996,256.4530619999996,0.019117300000289106,257.4525795999998,259.3685538,[-0.43148148148148147],[-0.3851851851851852],[1],[0],[0],[2.9283291000001554],['target'],2,001,2024-10-10_14h32.38.856,Visual search exp,2024.1.5,None,2024-10-10 14h32.52.917479 +0530,
121,0,121,0,259.4036495999999,,259.3731392999998,5,259.4036495999999,259.4036495999999,0.018914999999651627,260.40380189999996,261.8543921999999,[0.05648148148148148],[0.14814814814814814],[1],[0],[0],[2.4628124000000753],['target'],2,001,2024-10-10_14h32.38.856,Visual search exp,2024.1.5,None,2024-10-10 14h32.52.917479 +0530,
122,0,122,0,261.88897799999995,,261.8587041999999,5,261.88897799999995,261.88897799999995,0.018103899999914574,262.8891791999995,263.5565429999997,[-0.049074074074074076],[0.2935185185185185],[1],[0],[0],[1.6803293000002668],['target'],2,001,2024-10-10_14h32.38.856,Visual search exp,2024.1.5,None,2024-10-10 14h32.52.917479 +0530,
123,0,123,0,263.61533710000003,,263.56132069999967,10,263.61533710000003,263.61533710000003,0.036779500000193366,264.6213867999995,267.43220310000015,[0.2361111111111111],[0.4351851851851852],[1],[0],[0],[3.8346498000000793],['target'],2,001,2024-10-10_14h32.38.856,Visual search exp,2024.1.5,None,2024-10-10 14h32.52.917479 +0530,
124,0,124,0,267.49056759999985,,267.4372008999999,10,267.49056759999985,267.49056759999985,0.03711189999921771,268.5044939999998,269.82390059999943,[0.262037037037037],[-0.40925925925925927],[1],[0],[0],[2.350194399999964],['target'],2,001,2024-10-10_14h32.38.856,Visual search exp,2024.1.5,None,2024-10-10 14h32.52.917479 +0530,
125,0,125,0,269.88394379999954,,269.8285817999995,10,269.88394379999954,269.88394379999954,0.040051799999673676,270.88709109999945,272.6450340000001,[-0.13333333333333333],[0.3055555555555556],[1],[0],[0],[2.777171300000191],['target'],2,001,2024-10-10_14h32.38.856,Visual search exp,2024.1.5,None,2024-10-10 14h32.52.917479 +0530,
126,0,126,0,272.67973279999933,,272.65034279999963,5,272.67973279999933,272.67973279999933,0.0181445000007443,273.69250049999937,274.7926708999994,[0.425],[-0.40555555555555556],[1],[0],[0],[2.124721600000157],['target'],2,001,2024-10-10_14h32.38.856,Visual search exp,2024.1.5,None,2024-10-10 14h32.52.917479 +0530,
127,0,127,0,274.8548631999993,,274.79731959999935,10,274.8548631999993,274.8548631999993,0.03890450000017154,275.8580370999998,276.6623149999996,[-0.4898148148148148],[0.18981481481481483],[1],[0],[0],[1.8267836000004536],['target'],2,001,2024-10-10_14h32.38.856,Visual search exp,2024.1.5,None,2024-10-10 14h32.52.917479 +0530,
128,0,128,0,276.69737709999936,,276.66677829999935,5,276.69737709999936,276.69737709999936,0.019517099999575294,277.6970166000001,278.4317893999996,[-0.26666666666666666],[0.41944444444444445],[1],[0],[0],[1.7459761000000071],['target'],2,001,2024-10-10_14h32.38.856,Visual search exp,2024.1.5,None,2024-10-10 14h32.52.917479 +0530,
129,0,129,0,278.4887269000001,,278.4362240999999,10,278.4887269000001,278.4887269000001,0.036789100000532926,279.4951210999998,281.0506752000001,[0.2101851851851852],[-0.2490740740740741],[1],[0],[0],[2.578278699999828],['target'],2,001,2024-10-10_14h32.38.856,Visual search exp,2024.1.5,None,2024-10-10 14h32.52.917479 +0530,
130,0,130,0,281.08565819999967,,281.0551316000001,5,281.08565819999967,281.08565819999967,0.019719000000804954,282.0862763999994,283.11989059999996,[0.08425925925925926],[-0.025],[1],[0],[0],[2.045769699999255],['target'],2,001,2024-10-10_14h32.38.856,Visual search exp,2024.1.5,None,2024-10-10 14h32.52.917479 +0530,
131,0,131,0,283.1800771999997,,283.12443559999974,10,283.1800771999997,283.1800771999997,0.037350399999922956,284.1949743999994,286.3621138999997,[0.33796296296296297],[0.47314814814814815],[1],[0],[0],[3.200778600000376],['target'],2,001,2024-10-10_14h32.38.856,Visual search exp,2024.1.5,None,2024-10-10 14h32.52.917479 +0530,
132,0,132,0,286.39923499999986,,286.36692929999936,5,286.39923499999986,286.39923499999986,0.020053200000802462,287.41332969999985,288.63066849999996,[-0.06759259259259259],[-0.4],[1],[0],[0],[2.244260200000099],['target'],2,001,2024-10-10_14h32.38.856,Visual search exp,2024.1.5,None,2024-10-10 14h32.52.917479 +0530,
133,0,133,0,288.69182379999984,,288.6351361999996,10,288.69182379999984,288.69182379999984,0.038603100000727864,289.69626919999973,290.45055859999957,[0.362962962962963],[-0.3435185185185185],[1],[0],[0],[1.7774500999994416],['target'],2,001,2024-10-10_14h32.38.856,Visual search exp,2024.1.5,None,2024-10-10 14h32.52.917479 +0530,
134,0,134,0,290.48663419999957,,290.4551314999999,5,290.48663419999957,290.48663419999957,0.01919640000051004,291.5018014999996,291.8364781,[-0.1111111111111111],[-0.17407407407407408],[1],[0],[0],[1.362688199999866],['target'],2,001,2024-10-10_14h32.38.856,Visual search exp,2024.1.5,None,2024-10-10 14h32.52.917479 +0530,
135,0,135,0,291.87152549999973,,291.84095499999967,5,291.87152549999973,291.87152549999973,0.019476500000564556,292.8715241,293.28922819999934,[0.13796296296296295],[0.10092592592592593],[1],[0],[0],[1.4293766000000687],['target'],2,001,2024-10-10_14h32.38.856,Visual search exp,2024.1.5,None,2024-10-10 14h32.52.917479 +0530,
136,0,136,0,293.3231230000001,,293.2936203999998,5,293.3231230000001,293.3231230000001,0.01852469999994355,294.3246269000001,294.4593189999996,[0.2175925925925926],[0.08333333333333333],[1],[0],[0],[1.1477383999999802],['target'],2,001,2024-10-10_14h32.38.856,Visual search exp,2024.1.5,None,2024-10-10 14h32.52.917479 +0530,
137,0,137,0,294.51733759999934,,294.4641587999995,10,294.51733759999934,294.51733759999934,0.037591100000099686,295.5266920999993,297.6494232999994,[0.3388888888888889],[-0.4388888888888889],[1],[0],[0],[3.148630400000002],['target'],2,001,2024-10-10_14h32.38.856,Visual search exp,2024.1.5,None,2024-10-10 14h32.52.917479 +0530,
138,0,138,0,297.70934299999954,,297.65432079999937,10,297.70934299999954,297.70934299999954,0.03885489999993297,298.7206202999996,299.42618889999994,[0.20833333333333334],[0.2759259259259259],[1],[0],[0],[1.733490200000233],['target'],2,001,2024-10-10_14h32.38.856,Visual search exp,2024.1.5,None,2024-10-10 14h32.52.917479 +0530,
139,0,139,0,299.48398389999966,,299.4308250999993,10,299.48398389999966,299.48398389999966,0.03726470000037807,300.4841302999994,301.4272837999997,[-0.06296296296296296],[0.39166666666666666],[1],[0],[0],[1.9597453000005771],['target'],2,001,2024-10-10_14h32.38.856,Visual search exp,2024.1.5,None,2024-10-10 14h32.52.917479 +0530,
140,0,140,0,301.4838074999998,,301.4319268999998,10,301.4838074999998,301.4838074999998,0.03622370000084629,302.49088159999974,304.0126958000001,[0.39444444444444443],[0.24537037037037038],[1],[0],[0],[2.5451414999997723],['target'],2,001,2024-10-10_14h32.38.856,Visual search exp,2024.1.5,None,2024-10-10 14h32.52.917479 +0530,
141,0,141,0,304.0700827999999,,304.01739089999955,10,304.0700827999999,304.0700827999999,0.03673939999953291,305.0759896999998,305.93279729999995,[-0.42314814814814816],[0.4027777777777778],[1],[0],[0],[1.8795637000002898],['target'],2,001,2024-10-10_14h32.38.856,Visual search exp,2024.1.5,None,2024-10-10 14h32.52.917479 +0530,
142,0,142,0,305.9905095999993,,305.9372962999996,10,305.9905095999993,305.9905095999993,0.037229400000796886,306.99149510000007,307.7807149,[0.3712962962962963],[0.23703703703703705],[1],[0],[0],[1.806845500000236],['target'],2,001,2024-10-10_14h32.38.856,Visual search exp,2024.1.5,None,2024-10-10 14h32.52.917479 +0530,
143,0,143,0,307.8394779,,307.78519869999946,10,307.8394779,307.8394779,0.038403500000640634,308.8484482999993,310.15677069999947,[0.2101851851851852],[-0.34629629629629627],[1],[0],[0],[2.3338430000003427],['target'],2,001,2024-10-10_14h32.38.856,Visual search exp,2024.1.5,None,2024-10-10 14h32.52.917479 +0530,
144,0,144,0,310.2145879999998,,310.1612546999995,10,310.2145879999998,310.2145879999998,0.03746930000033899,311.2275512999995,312.68678420000015,[-0.05092592592592592],[-0.2824074074074074],[1],[0],[0],[2.4886619999997492],['target'],2,001,2024-10-10_14h32.38.856,Visual search exp,2024.1.5,None,2024-10-10 14h32.52.917479 +0530,
145,0,145,0,312.72175979999975,,312.6911761000001,5,312.72175979999975,312.72175979999975,0.019122499999866704,313.72248880000006,314.15727439999955,[0.07314814814814814],[-0.11203703703703703],[1],[0],[0],[1.447533900000053],['target'],2,001,2024-10-10_14h32.38.856,Visual search exp,2024.1.5,None,2024-10-10 14h32.52.917479 +0530,
146,0,146,0,314.21419699999933,,314.16177289999996,10,314.21419699999933,314.21419699999933,0.03646440000011353,315.22289790000013,317.9482514000001,[0.02962962962962963],[0.32685185185185184],[1],[0],[0],[3.7505959999998595],['target'],2,001,2024-10-10_14h32.38.856,Visual search exp,2024.1.5,None,2024-10-10 14h32.52.917479 +0530,
147,0,147,0,317.98337769999944,,317.95265259999996,5,317.98337769999944,317.98337769999944,0.019709600000169303,318.9836108999998,320.05152199999975,[-0.3814814814814815],[-0.20462962962962963],[1],[0],[0],[2.079570699999749],['target'],2,001,2024-10-10_14h32.38.856,Visual search exp,2024.1.5,None,2024-10-10 14h32.52.917479 +0530,
148,0,148,0,320.0859851999994,,320.05608739999934,5,320.0859851999994,320.0859851999994,0.01894110000012006,321.0858073999998,322.02021069999955,[0.49444444444444446],[-0.05185185185185185],[1],[0],[0],[1.945781700000225],['target'],2,001,2024-10-10_14h32.38.856,Visual search exp,2024.1.5,None,2024-10-10 14h32.52.917479 +0530,
149,0,149,0,322.0552748,,322.0246767999997,5,322.0552748,322.0552748,0.019616600000517792,323.05523099999937,323.5727372000001,[-0.26666666666666666],[0.16018518518518518],[1],[0],[0],[1.528993800000535],['target'],2,001,2024-10-10_14h32.38.856,Visual search exp,2024.1.5,None,2024-10-10 14h32.52.917479 +0530,
150,0,150,0,323.62915040000007,,323.5773914000001,10,323.62915040000007,323.62915040000007,0.03639420000035898,324.63268659999994,326.6659850999995,[0.40925925925925927],[-0.36018518518518516],[1],[0],[0],[3.0526880999996138],['target'],2,001,2024-10-10_14h32.38.856,Visual search exp,2024.1.5,None,2024-10-10 14h32.52.917479 +0530,
151,0,151,0,326.7012827999997,,326.67066499999964,5,326.7012827999997,326.7012827999997,0.019584900000154448,327.7168249999995,329.21663329999956,[0.45092592592592595],[0.03425925925925926],[1],[0],[0],[2.5269850000004226],['target'],2,001,2024-10-10_14h32.38.856,Visual search exp,2024.1.5,None,2024-10-10 14h32.52.917479 +0530,
152,0,152,0,329.2510386999993,,329.2210396999999,5,329.2510386999993,329.2510386999993,0.01912960000026942,330.25170869999965,330.4867697999998,[0.15833333333333333],[0.125],[1],[0],[0],[1.2470610000000306],['target'],2,001,2024-10-10_14h32.38.856,Visual search exp,2024.1.5,None,2024-10-10 14h32.52.917479 +0530,
153,0,153,0,330.5524747999998,,330.4916407999999,10,330.5524747999998,330.5524747999998,0.03655220000018744,331.5548928999997,333.49518199999966,[0.09074074074074075],[0.462037037037037],[1],[0],[0],[2.9674653000001854],['target'],2,001,2024-10-10_14h32.38.856,Visual search exp,2024.1.5,None,2024-10-10 14h32.52.917479 +0530,
154,0,154,0,333.5521111999997,,333.4996205999996,10,333.5521111999997,333.5521111999997,0.03694539999924018,334.5642643000001,335.2717788,[0.4009259259259259],[-0.14629629629629629],[1],[0],[0],[1.7358224000008704],['target'],2,001,2024-10-10_14h32.38.856,Visual search exp,2024.1.5,None,2024-10-10 14h32.52.917479 +0530,
155,0,155,0,335.30682929999966,,335.2766056999999,5,335.30682929999966,335.30682929999966,0.019210200000088662,336.30703749999975,336.82464439999967,[0.1259259259259259],[0.12314814814814815],[1],[0],[0],[1.529389400000582],['target'],2,001,2024-10-10_14h32.38.856,Visual search exp,2024.1.5,None,2024-10-10 14h32.52.917479 +0530,
156,0,156,0,336.8596729000001,,336.8291365999994,5,336.8596729000001,336.8596729000001,0.01935719999983121,337.85948409999946,338.3944127999994,[-0.275],[0.2518518518518518],[1],[0],[0],[1.5465129999993223],['target'],2,001,2024-10-10_14h32.38.856,Visual search exp,2024.1.5,None,2024-10-10 14h32.52.917479 +0530,
157,0,157,0,338.45097279999936,,338.3988937999993,10,338.45097279999936,338.45097279999936,0.03653229999963514,339.4568322999994,340.7189768999997,[0.23055555555555557],[-0.2074074074074074],[1],[0],[0],[2.2840188000000126],['target'],2,001,2024-10-10_14h32.38.856,Visual search exp,2024.1.5,None,2024-10-10 14h32.52.917479 +0530,
158,0,158,0,340.77685569999994,,340.72448279999935,10,340.77685569999994,340.77685569999994,0.036422899999706715,341.78588219999983,343.2840778,[-0.45740740740740743],[0.4759259259259259],[1],[0],[0],[2.5237981999998738],['target'],2,001,2024-10-10_14h32.38.856,Visual search exp,2024.1.5,None,2024-10-10 14h32.52.917479 +0530,
159,0,159,0,343.3442621999993,,343.2885166999995,10,343.3442621999993,343.3442621999993,0.03920780000044033,344.35435379999944,345.7109697999995,[0.07777777777777778],[0.20555555555555555],[1],[0],[0],[2.3838839999998527],['target'],2,001,2024-10-10_14h32.38.856,Visual search exp,2024.1.5,None,2024-10-10 14h32.52.917479 +0530,
160,0,160,0,345.7640437,,345.71525740000016,10,345.7640437,345.7640437,0.03393880000021454,346.77488319999975,348.03634929999953,[0.44814814814814813],[0.337037037037037],[1],[0],[0],[2.287776600000143],['target'],2,001,2024-10-10_14h32.38.856,Visual search exp,2024.1.5,None,2024-10-10 14h32.52.917479 +0530,
161,0,161,0,348.07341629999974,,348.0408603999995,5,348.07341629999974,348.07341629999974,0.01994009999998525,349.08204919999935,349.41706629999953,[0.31666666666666665],[0.4666666666666667],[1],[0],[0],[1.3567838000008123],['target'],2,001,2024-10-10_14h32.38.856,Visual search exp,2024.1.5,None,2024-10-10 14h32.52.917479 +0530,
162,0,162,0,349.47161849999975,,349.4214807999997,10,349.47161849999975,349.47161849999975,0.03467060000002675,350.4716410000001,351.5499095999994,[0.2935185185185185],[-0.3333333333333333],[1],[0],[0],[2.09431240000049],['target'],2,001,2024-10-10_14h32.38.856,Visual search exp,2024.1.5,None,2024-10-10 14h32.52.917479 +0530,
163,0,163,0,351.6081344999993,,351.5546771999998,10,351.6081344999993,351.6081344999993,0.03762819999974454,352.6147431999998,354.3004557999993,[0.025925925925925925],[-0.42685185185185187],[1],[0],[0],[2.708616599999914],['target'],2,001,2024-10-10_14h32.38.856,Visual search exp,2024.1.5,None,2024-10-10 14h32.52.917479 +0530,
164,0,164,0,354.3344656999998,,354.3049473000001,5,354.3344656999998,354.3344656999998,0.018234499999380205,355.34872499999983,356.41658559999996,[0.2712962962962963],[-0.40555555555555556],[1],[0],[0],[2.0939853999998377],['target'],2,001,2024-10-10_14h32.38.856,Visual search exp,2024.1.5,None,2024-10-10 14h32.52.917479 +0530,
165,0,165,0,356.4505922999997,,356.42088890000014,5,356.4505922999997,356.4505922999997,0.017936700000063865,357.4514202999999,358.00196030000006,[0.37962962962962965],[-0.12685185185185185],[1],[0],[0],[1.5636977000003753],['target'],2,001,2024-10-10_14h32.38.856,Visual search exp,2024.1.5,None,2024-10-10 14h32.52.917479 +0530,
166,0,166,0,358.06139489999987,,358.0062676999996,10,358.06139489999987,358.06139489999987,0.038877499999216525,359.0695697000001,361.5246675999997,[0.3425925925925926],[0.25925925925925924],[1],[0],[0],[3.480055799999718],['target'],2,001,2024-10-10_14h32.38.856,Visual search exp,2024.1.5,None,2024-10-10 14h32.52.917479 +0530,
167,0,167,0,361.58260809999956,,361.5291479999996,10,361.58260809999956,361.58260809999956,0.036636900000303285,362.58464300000014,362.8958926999994,[0.44074074074074077],[0.11666666666666667],[1],[0],[0],[1.3307301999993797],['target'],2,001,2024-10-10_14h32.38.856,Visual search exp,2024.1.5,None,2024-10-10 14h32.52.917479 +0530,
168,0,168,0,362.9528978999997,,362.9003318999994,10,362.9528978999997,362.9528978999997,0.036758000000190805,363.96040300000004,364.54802159999963,[-0.17962962962962964],[0.1425925925925926],[1],[0],[0],[1.6115736000001561],['target'],2,001,2024-10-10_14h32.38.856,Visual search exp,2024.1.5,None,2024-10-10 14h32.52.917479 +0530,
169,0,169,0,364.60564710000017,,364.55276689999937,10,364.60564710000017,364.60564710000017,0.03709020000042074,365.62082009999995,367.4427208999996,[0.3425925925925926],[-0.3962962962962963],[1],[0],[0],[2.853411299999607],['target'],2,001,2024-10-10_14h32.38.856,Visual search exp,2024.1.5,None,2024-10-10 14h32.52.917479 +0530,
170,0,170,0,367.4981782999994,,367.4474087999997,10,367.4981782999994,367.4981782999994,0.03507209999952465,368.5090897,369.81575689999954,[0.3962962962962963],[0.37407407407407406],[1],[0],[0],[2.3338547999992443],['target'],2,001,2024-10-10_14h32.38.856,Visual search exp,2024.1.5,None,2024-10-10 14h32.52.917479 +0530,
171,0,171,0,369.87352180000016,,369.8201847999999,10,369.87352180000016,369.87352180000016,0.03618509999978414,370.88263240000015,372.07020920000014,[0.12777777777777777],[0.0787037037037037],[1],[0],[0],[2.2144149999994625],['target'],2,001,2024-10-10_14h32.38.856,Visual search exp,2024.1.5,None,2024-10-10 14h32.52.917479 +0530,
172,0,172,0,372.12591599999996,,372.0750226,10,372.12591599999996,372.12591599999996,0.03544719999990775,,372.2143398999997,[0.12777777777777777],[0.0787037037037037],[1],[0],[0],[0.10449069999958738],[],2,001,2024-10-10_14h32.38.856,Visual search exp,2024.1.5,None,2024-10-10 14h32.52.917479 +0530,
173,0,173,0,372.27179780000006,,372.21877760000007,10,372.27179780000006,372.27179780000006,0.037228500000310305,373.2785438000001,374.2056746999997,[0.10555555555555556],[-0.3638888888888889],[1],[0],[0],[1.9502302000000782],['target'],2,001,2024-10-10_14h32.38.856,Visual search exp,2024.1.5,None,2024-10-10 14h32.52.917479 +0530,
174,0,174,0,374.24065470000005,,374.21004769999945,5,374.24065470000005,374.24065470000005,0.019619099999545142,375.2411701000001,376.07554319999963,[-0.21666666666666667],[0.03425925925925926],[1],[0],[0],[1.8464475999999195],['target'],2,001,2024-10-10_14h32.38.856,Visual search exp,2024.1.5,None,2024-10-10 14h32.52.917479 +0530,
175,0,175,0,376.1324318999996,,376.0798959999993,10,376.1324318999996,376.1324318999996,0.035533899999791174,377.1370200000001,377.5250280999999,[0.07962962962962963],[0.08981481481481482],[1],[0],[0],[1.410117899999932],['target'],2,001,2024-10-10_14h32.38.856,Visual search exp,2024.1.5,None,2024-10-10 14h32.52.917479 +0530,
176,0,176,0,377.57054939999944,,377.5310178999998,5,377.57054939999944,377.57054939999944,0.02621169999929407,378.58362169999964,380.3667704999998,[-0.1814814814814815],[0.44074074074074077],[1],[0],[0],[2.810232800000449],['target'],2,001,2024-10-10_14h32.38.856,Visual search exp,2024.1.5,None,2024-10-10 14h32.52.917479 +0530,
177,0,177,0,380.4017709,,380.37118199999986,5,380.4017709,380.4017709,0.019489100000100734,381.40127930000017,381.8861673000001,[0.07592592592592592],[0.4203703703703704],[1],[0],[0],[1.4960913999993863],['target'],2,001,2024-10-10_14h32.38.856,Visual search exp,2024.1.5,None,2024-10-10 14h32.52.917479 +0530,
178,0,178,0,381.9437154999996,,381.8908244999993,10,381.9437154999996,381.9437154999996,0.0360688000000664,382.9706630999999,385.21269889999985,[-0.23333333333333334],[-0.3638888888888889],[1],[0],[0],[3.286289399999987],['target'],2,001,2024-10-10_14h32.38.856,Visual search exp,2024.1.5,None,2024-10-10 14h32.52.917479 +0530,
179,0,179,0,385.2542337999994,,385.21723459999976,5,385.2542337999994,385.2542337999994,0.02158789999975852,386.25577280000016,386.9573475999996,[0.058333333333333334],[-0.05462962962962963],[1],[0],[0],[1.7191505000000689],['target'],2,001,2024-10-10_14h32.38.856,Visual search exp,2024.1.5,None,2024-10-10 14h32.52.917479 +0530,
180,0,180,0,387.01729109999997,,386.9618026999997,10,387.01729109999997,387.01729109999997,0.03820079999968584,388.02866859999995,389.59952069999963,[-0.18888888888888888],[0.4861111111111111],[1],[0],[0],[2.60008629999993],['target'],2,001,2024-10-10_14h32.38.856,Visual search exp,2024.1.5,None,2024-10-10 14h32.52.917479 +0530,
181,0,181,0,389.6594177999996,,389.60388669999975,10,389.6594177999996,389.6594177999996,0.03750289999970846,390.67073079999955,391.4590582000001,[-0.41203703703703703],[0.35185185185185186],[1],[0],[0],[1.8183339000006526],['target'],2,001,2024-10-10_14h32.38.856,Visual search exp,2024.1.5,None,2024-10-10 14h32.52.917479 +0530,
182,0,182,0,391.4936638999998,,391.4638443999993,5,391.4936638999998,391.4936638999998,0.018944899999951303,392.49431959999947,393.92834779999976,[0.13333333333333333],[-0.41574074074074074],[1],[0],[0],[2.4461848999999347],['target'],2,001,2024-10-10_14h32.38.856,Visual search exp,2024.1.5,None,2024-10-10 14h32.52.917479 +0530,
183,0,183,0,393.9858783999998,,393.9329607999998,10,393.9858783999998,393.9858783999998,0.03720939999948314,394.9947409999995,395.72367380000014,[0.47685185185185186],[-0.38981481481481484],[1],[0],[0],[1.7540048999999271],['target'],2,001,2024-10-10_14h32.38.856,Visual search exp,2024.1.5,None,2024-10-10 14h32.52.917479 +0530,
184,0,184,0,395.76031950000015,,395.72808279999936,5,395.76031950000015,395.76031950000015,0.02054740000039601,396.7696516999995,397.3878814999998,[0.10555555555555556],[-0.2324074074074074],[1],[0],[0],[1.639813900000263],['target'],2,001,2024-10-10_14h32.38.856,Visual search exp,2024.1.5,None,2024-10-10 14h32.52.917479 +0530,
185,0,185,0,397.4223793000001,,397.39221910000015,5,397.4223793000001,397.4223793000001,0.0185511999998198,398.42258499999934,400.2053612999998,[0.062037037037037036],[0.062037037037037036],[1],[0],[0],[2.7953087000005326],['target'],2,001,2024-10-10_14h32.38.856,Visual search exp,2024.1.5,None,2024-10-10 14h32.52.917479 +0530,
186,0,186,0,400.2402530999998,,400.20970919999945,5,400.2402530999998,400.2402530999998,0.019047100000534556,401.2408773999996,402.3081664000001,[0.375],[0.20462962962962963],[1],[0],[0],[2.079985100000158],['target'],2,001,2024-10-10_14h32.38.856,Visual search exp,2024.1.5,None,2024-10-10 14h32.52.917479 +0530,
187,0,187,0,402.3676968,,402.31281239999953,10,402.3676968,402.3676968,0.039022599999952945,403.36659659999987,404.22577809999984,[-0.2638888888888889],[0.25555555555555554],[1],[0],[0],[1.8744794999993246],['target'],2,001,2024-10-10_14h32.38.856,Visual search exp,2024.1.5,None,2024-10-10 14h32.52.917479 +0530,
188,0,188,0,404.28470539999944,,404.2301966999994,10,404.28470539999944,404.28470539999944,0.03754869999920629,405.2929411999994,406.65675139999985,[-0.3194444444444444],[-0.29907407407407405],[1],[0],[0],[2.3896152999996048],['target'],2,001,2024-10-10_14h32.38.856,Visual search exp,2024.1.5,None,2024-10-10 14h32.52.917479 +0530,
189,0,189,0,406.6912892,,406.66121179999936,5,406.6912892,406.6912892,0.019033999999919615,407.69254939999973,408.5426787999995,[0.003703703703703704],[-0.2037037037037037],[1],[0],[0],[1.863027399999737],['target'],2,001,2024-10-10_14h32.38.856,Visual search exp,2024.1.5,None,2024-10-10 14h32.52.917479 +0530,
190,0,190,0,408.5788969999994,,408.5474250999996,5,408.5788969999994,408.5788969999994,0.02027150000049005,409.5784116999994,410.4457993999995,[0.412962962962963],[0.13148148148148148],[1],[0],[0],[1.8787861999999222],['target'],2,001,2024-10-10_14h32.38.856,Visual search exp,2024.1.5,None,2024-10-10 14h32.52.917479 +0530,
191,0,191,0,410.5023354999994,,410.45022119999976,10,410.5023354999994,410.5023354999994,0.036585800000466406,411.5121825999995,412.32382849999976,[0.041666666666666664],[0.37777777777777777],[1],[0],[0],[1.8375701000004483],['target'],2,001,2024-10-10_14h32.38.856,Visual search exp,2024.1.5,None,2024-10-10 14h32.52.917479 +0530,
192,0,192,0,412.3805837,,412.3283326999999,10,412.3805837,412.3805837,0.03660850000051141,413.3941887000001,414.5009397999993,[-0.14722222222222223],[-0.07592592592592592],[1],[0],[0],[2.136622300000454],['target'],2,001,2024-10-10_14h32.38.856,Visual search exp,2024.1.5,None,2024-10-10 14h32.52.917479 +0530,
193,0,193,0,414.55686179999975,,414.5052840999997,10,414.55686179999975,414.55686179999975,0.03599419999954989,415.5710515999999,416.3621070999998,[-0.17685185185185184],[0.13425925925925927],[1],[0],[0],[1.8214066000000457],['target'],2,001,2024-10-10_14h32.38.856,Visual search exp,2024.1.5,None,2024-10-10 14h32.52.917479 +0530,
194,0,194,0,416.42066239999986,,416.3670615000001,10,416.42066239999986,416.42066239999986,0.03713060000063706,417.4287257999995,418.34386149999955,[0.003703703703703704],[0.19166666666666668],[1],[0],[0],[1.940318500000103],['target'],2,001,2024-10-10_14h32.38.856,Visual search exp,2024.1.5,None,2024-10-10 14h32.52.917479 +0530,
195,0,195,0,418.3786904999997,,418.34851609999987,5,418.3786904999997,418.3786904999997,0.018424400000185415,419.3878335999998,420.25566889999936,[0.17222222222222222],[-0.22777777777777777],[1],[0],[0],[1.8891539999995075],['target'],2,001,2024-10-10_14h32.38.856,Visual search exp,2024.1.5,None,2024-10-10 14h32.52.917479 +0530,
196,0,196,0,420.2890800999994,,420.2599833999993,5,420.2890800999994,420.2890800999994,0.01801939999950264,421.2904689999996,424.43890759999977,[-0.3111111111111111],[0.4925925925925926],[1],[0],[0],[4.161486500000137],['target'],2,001,2024-10-10_14h32.38.856,Visual search exp,2024.1.5,None,2024-10-10 14h32.52.917479 +0530,
197,0,197,0,424.4753691999995,,424.44383689999995,5,424.4753691999995,424.4753691999995,0.019926899999518355,425.4906688000001,425.7091240999998,[-0.16203703703703703],[0.40185185185185185],[0],[0],[1],[1.2460719000000609],['target'],2,001,2024-10-10_14h32.38.856,Visual search exp,2024.1.5,None,2024-10-10 14h32.52.917479 +0530,
198,0,198,0,425.76773989999947,,425.71375739999985,10,425.76773989999947,425.76773989999947,0.03804429999945569,426.7757770999997,427.9217644999999,[0.25555555555555554],[0.27870370370370373],[1],[0],[0],[2.1705170999994152],['target'],2,001,2024-10-10_14h32.38.856,Visual search exp,2024.1.5,None,2024-10-10 14h32.52.917479 +0530,
199,0,199,0,427.9570286999997,,427.92675899999995,5,427.9570286999997,427.9570286999997,0.019224499999836553,428.9726872000001,430.0895333999997,[-0.4361111111111111],[-0.026851851851851852],[1],[0],[0],[2.1440834999993967],['target'],2,001,2024-10-10_14h32.38.856,Visual search exp,2024.1.5,None,2024-10-10 14h32.52.917479 +0530,
