trials.thisRepN,trials.thisTrialN,trials.thisN,trials.thisIndex,thisRow.t,notes,trial.started,num_distr,fixation.started,target.started,mouse.started,fixation.stopped,trial.stopped,mouse.x,mouse.y,mouse.leftButton,mouse.midButton,mouse.rightButton,mouse.time,mouse.clicked_name,participant,session,date,expName,psychopyVersion,frameRate,expStart,
0,0,0,0,0.0467426000004707,,0.008287900000141235,5,0.0467426000004707,0.0467426000004707,0.03321510000023409,1.0501505000001998,1.7178248999998686,[0.28888888888888886],[0.25555555555555554],[1],[0],[0],[1.6839493000006769],['target'],3,001,2024-10-10_14h41.33.700,Visual search exp,2024.1.5,None,2024-10-10 14h41.55.527581 +0530,
1,0,1,0,1.7775926000003892,,1.7233085999996547,10,1.7775926000003892,1.7775926000003892,0.03683290000026318,2.781719100000373,3.8292725000001155,[-0.20555555555555555],[-0.3333333333333333],[1],[0],[0],[2.0697565999998915],['target'],3,001,2024-10-10_14h41.33.700,Visual search exp,2024.1.5,None,2024-10-10 14h41.55.527581 +0530,
2,0,2,0,3.886446800000158,,3.833898500000032,10,3.886446800000158,3.886446800000158,0.03795780000018567,4.897709599999871,6.637983499999791,[-0.2],[0.3055555555555556],[1],[0],[0],[2.766732099999899],['target'],3,001,2024-10-10_14h41.33.700,Visual search exp,2024.1.5,None,2024-10-10 14h41.55.527581 +0530,
3,0,3,0,6.671395600000324,,6.6424519000001965,5,6.671395600000324,6.671395600000324,0.01836260000072798,7.670635100000254,9.670890000000327,[-0.48518518518518516],[0.4888888888888889],[1],[0],[0],[3.0106447999996817],['target'],3,001,2024-10-10_14h41.33.700,Visual search exp,2024.1.5,None,2024-10-10 14h41.55.527581 +0530,
4,0,4,0,9.726224699999875,,9.675288000000364,10,9.726224699999875,9.726224699999875,0.03478499999982887,10.735690200000136,11.71515079999972,[0.43703703703703706],[0.13148148148148148],[1],[0],[0],[2.0056713000003583],['target'],3,001,2024-10-10_14h41.33.700,Visual search exp,2024.1.5,None,2024-10-10 14h41.55.527581 +0530,
5,0,5,0,11.74938850000035,,11.71940160000031,5,11.74938850000035,11.74938850000035,0.018125900000086403,12.762389999999868,13.396971099999973,[0.2361111111111111],[-0.3277777777777778],[1],[0],[0],[1.6600109000000884],['target'],3,001,2024-10-10_14h41.33.700,Visual search exp,2024.1.5,None,2024-10-10 14h41.55.527581 +0530,
6,0,6,0,13.451695400000062,,13.401239400000122,10,13.451695400000062,13.451695400000062,0.03546970000024885,14.472527400000217,16.343111899999712,[0.287962962962963],[0.10648148148148148],[1],[0],[0],[2.907027399999606],['target'],3,001,2024-10-10_14h41.33.700,Visual search exp,2024.1.5,None,2024-10-10 14h41.55.527581 +0530,
7,0,7,0,16.37611310000011,,16.347548200000347,5,16.37611310000011,16.37611310000011,0.018067299999529496,17.37718980000045,17.911568700000316,[-0.43796296296296294],[-0.11018518518518519],[1],[0],[0],[1.5465129999993223],['target'],3,001,2024-10-10_14h41.33.700,Visual search exp,2024.1.5,None,2024-10-10 14h41.55.527581 +0530,
8,0,8,0,17.965724300000147,,17.915898299999753,10,17.965724300000147,17.965724300000147,0.034659999999348656,18.971358200000395,21.87043640000047,[0.21666666666666667],[0.25],[1],[0],[0],[3.9204336000002513],['target'],3,001,2024-10-10_14h41.33.700,Visual search exp,2024.1.5,None,2024-10-10 14h41.55.527581 +0530,
9,0,9,0,21.92450269999972,,21.874726699999883,10,21.92450269999972,21.92450269999972,0.03444810000019061,22.930805699999837,23.544118900000285,[0.17777777777777778],[-0.362962962962963],[1],[0],[0],[1.635522800000217],['target'],3,001,2024-10-10_14h41.33.700,Visual search exp,2024.1.5,None,2024-10-10 14h41.55.527581 +0530,
10,0,10,0,23.576800200000434,,23.54842069999995,5,23.576800200000434,23.576800200000434,0.017863799999759067,24.579083999999966,25.29751099999976,[-0.4046296296296296],[-0.1425925925925926],[1],[0],[0],[1.7316681000002063],['target'],3,001,2024-10-10_14h41.33.700,Visual search exp,2024.1.5,None,2024-10-10 14h41.55.527581 +0530,
11,0,11,0,25.33065499999975,,25.302021200000127,5,25.33065499999975,25.33065499999975,0.018168300000070303,26.331972199999655,26.966357000000244,[0.1962962962962963],[-0.0962962962962963],[1],[0],[0],[1.6467519999996512],['target'],3,001,2024-10-10_14h41.33.700,Visual search exp,2024.1.5,None,2024-10-10 14h41.55.527581 +0530,
12,0,12,0,27.02241479999975,,26.970620000000054,10,27.02241479999975,27.02241479999975,0.035291999999572,28.03554609999992,29.076151899999786,[0.33611111111111114],[-0.4583333333333333],[1],[0],[0],[2.070812900000419],['target'],3,001,2024-10-10_14h41.33.700,Visual search exp,2024.1.5,None,2024-10-10 14h41.55.527581 +0530,
13,0,13,0,29.114554699999644,,29.080595999999787,5,29.114554699999644,29.114554699999644,0.023048699999890232,30.12804310000047,30.7129974999998,[-0.4638888888888889],[-0.3416666666666667],[1],[0],[0],[1.6099074999992808],['target'],3,001,2024-10-10_14h41.33.700,Visual search exp,2024.1.5,None,2024-10-10 14h41.55.527581 +0530,
14,0,14,0,30.78273199999967,,30.71953670000039,10,30.78273199999967,30.78273199999967,0.04562750000059168,31.786759900000106,32.83119439999973,[0.29444444444444445],[-0.06111111111111111],[1],[0],[0],[2.066928999999618],['target'],3,001,2024-10-10_14h41.33.700,Visual search exp,2024.1.5,None,2024-10-10 14h41.55.527581 +0530,
15,0,15,0,32.86607830000048,,32.836032799999884,5,32.86607830000048,32.86607830000048,0.01891909999994823,33.86539019999964,33.96679260000019,[0.3731481481481482],[0.2101851851851852],[1],[0],[0],[1.1124202999999397],['target'],3,001,2024-10-10_14h41.33.700,Visual search exp,2024.1.5,None,2024-10-10 14h41.55.527581 +0530,
16,0,16,0,34.001366499999676,,33.9711699999998,5,34.001366499999676,34.001366499999676,0.019627099999524944,35.00269070000013,36.19402470000023,[-0.23055555555555557],[0.38333333333333336],[1],[0],[0],[2.2035794999992504],['target'],3,001,2024-10-10_14h41.33.700,Visual search exp,2024.1.5,None,2024-10-10 14h41.55.527581 +0530,
17,0,17,0,36.262550499999634,,36.2032435000001,10,36.262550499999634,36.262550499999634,0.04531970000061847,37.26562660000036,37.766901699999835,[0.3509259259259259],[-0.29259259259259257],[1],[0],[0],[1.519742800000131],['target'],3,001,2024-10-10_14h41.33.700,Visual search exp,2024.1.5,None,2024-10-10 14h41.55.527581 +0530,
18,0,18,0,37.831860600000255,,37.77334350000001,10,37.831860600000255,37.831860600000255,0.04157489999943209,38.844530100000156,39.753470200000265,[-0.3138888888888889],[0.2611111111111111],[1],[0],[0],[1.939141799999561],['target'],3,001,2024-10-10_14h41.33.700,Visual search exp,2024.1.5,None,2024-10-10 14h41.55.527581 +0530,
19,0,19,0,39.78703740000037,,39.75780620000023,5,39.78703740000037,39.78703740000037,0.018193199999586795,40.78777280000031,41.62261269999999,[0.23703703703703705],[-0.03981481481481482],[1],[0],[0],[1.8471837000006417],['target'],3,001,2024-10-10_14h41.33.700,Visual search exp,2024.1.5,None,2024-10-10 14h41.55.527581 +0530,
20,0,20,0,41.65551070000038,,41.62698960000034,5,41.65551070000038,41.65551070000038,0.017997400000240305,42.65988990000005,43.02893969999968,[0.075],[0.11296296296296296],[1],[0],[0],[1.3843403999999282],['target'],3,001,2024-10-10_14h41.33.700,Visual search exp,2024.1.5,None,2024-10-10 14h41.55.527581 +0530,
21,0,21,0,43.12911489999988,,43.03749510000034,10,43.12911489999988,43.12911489999988,0.06741499999952794,44.1403293000003,45.91015510000034,[0.2074074074074074],[-0.13240740740740742],[1],[0],[0],[2.8064046999998027],['target'],3,001,2024-10-10_14h41.33.700,Visual search exp,2024.1.5,None,2024-10-10 14h41.55.527581 +0530,
22,0,22,0,45.96578959999988,,45.914716000000226,10,45.96578959999988,45.96578959999988,0.03632930000003398,46.966129600000386,47.40065179999965,[0.3138888888888889],[-0.46296296296296297],[1],[0],[0],[1.4503056000003198],['target'],3,001,2024-10-10_14h41.33.700,Visual search exp,2024.1.5,None,2024-10-10 14h41.55.527581 +0530,
23,0,23,0,47.45639149999988,,47.405033699999876,10,47.45639149999988,47.45639149999988,0.0361109999994369,48.467756300000474,48.74161439999989,[-0.0787037037037037],[0.26666666666666666],[1],[0],[0],[1.3010709000000134],['target'],3,001,2024-10-10_14h41.33.700,Visual search exp,2024.1.5,None,2024-10-10 14h41.55.527581 +0530,
24,0,24,0,48.80182760000025,,48.74635719999969,10,48.80182760000025,48.80182760000025,0.03720599999996921,49.80869510000048,49.98529589999998,[0.47314814814814815],[-0.04814814814814815],[1],[0],[0],[1.2020613000004232],['target'],3,001,2024-10-10_14h41.33.700,Visual search exp,2024.1.5,None,2024-10-10 14h41.55.527581 +0530,
25,0,25,0,50.04052169999977,,49.98967770000036,10,50.04052169999977,50.04052169999977,0.035677799999575655,51.04099760000008,51.663293700000395,[0.10648148148148148],[-0.04722222222222222],[1],[0],[0],[1.6385632000001351],['target'],3,001,2024-10-10_14h41.33.700,Visual search exp,2024.1.5,None,2024-10-10 14h41.55.527581 +0530,
26,0,26,0,51.69592410000041,,51.667569600000206,5,51.69592410000041,51.69592410000041,0.017798599999878206,52.698167999999896,53.13332220000029,[0.2611111111111111],[0.125],[1],[0],[0],[1.4483997999996063],['target'],3,001,2024-10-10_14h41.33.700,Visual search exp,2024.1.5,None,2024-10-10 14h41.55.527581 +0530,
27,0,27,0,53.16668060000029,,53.13770569999997,5,53.16668060000029,53.16668060000029,0.01868590000049153,54.167809800000214,54.36902269999973,[0.30925925925925923],[0.412962962962963],[1],[0],[0],[1.2133255999997345],['target'],3,001,2024-10-10_14h41.33.700,Visual search exp,2024.1.5,None,2024-10-10 14h41.55.527581 +0530,
28,0,28,0,54.40160850000029,,54.3734185000003,5,54.40160850000029,54.40160850000029,0.017776499999854423,55.40333660000033,56.504383000000416,[0.4675925925925926],[0.4638888888888889],[1],[0],[0],[2.113581499999782],['target'],3,001,2024-10-10_14h41.33.700,Visual search exp,2024.1.5,None,2024-10-10 14h41.55.527581 +0530,
29,0,29,0,56.56084800000008,,56.50865760000033,10,56.56084800000008,56.56084800000008,0.03477660000044125,57.56420960000014,59.17800569999963,[-0.07314814814814814],[-0.025],[1],[0],[0],[2.635163900000407],['target'],3,001,2024-10-10_14h41.33.700,Visual search exp,2024.1.5,None,2024-10-10 14h41.55.527581 +0530,
30,0,30,0,59.21157459999995,,59.182375800000045,5,59.21157459999995,59.21157459999995,0.018492000000151165,60.212573200000406,61.89540070000021,[0.4064814814814815],[-0.25092592592592594],[1],[0],[0],[2.695101600000271],['target'],3,001,2024-10-10_14h41.33.700,Visual search exp,2024.1.5,None,2024-10-10 14h41.55.527581 +0530,
31,0,31,0,61.949788300000364,,61.899817299999995,10,61.949788300000364,61.949788300000364,0.034840799999983574,62.95197209999969,64.40286769999966,[0.20925925925925926],[0.25],[1],[0],[0],[2.4687228000002506],['target'],3,001,2024-10-10_14h41.33.700,Visual search exp,2024.1.5,None,2024-10-10 14h41.55.527581 +0530,
32,0,32,0,64.45891790000042,,64.4075227000003,10,64.45891790000042,64.45891790000042,0.03671790000043984,65.46218299999964,66.34295110000039,[-0.10092592592592593],[-0.38055555555555554],[1],[0],[0],[1.8991642000000866],['target'],3,001,2024-10-10_14h41.33.700,Visual search exp,2024.1.5,None,2024-10-10 14h41.55.527581 +0530,
33,0,33,0,66.37664469999982,,66.34745029999976,5,66.37664469999982,66.37664469999982,0.01854769999954442,67.37756929999978,67.64562540000043,[0.06481481481481481],[0.2388888888888889],[1],[0],[0],[1.280171500000506],['target'],3,001,2024-10-10_14h41.33.700,Visual search exp,2024.1.5,None,2024-10-10 14h41.55.527581 +0530,
34,0,34,0,67.70130210000025,,67.64988189999985,10,67.70130210000025,67.70130210000025,0.036403400000381225,68.7141289000001,70.13741000000027,[-0.20092592592592592],[0.35185185185185186],[1],[0],[0],[2.4516914999994697],['target'],3,001,2024-10-10_14h41.33.700,Visual search exp,2024.1.5,None,2024-10-10 14h41.55.527581 +0530,
35,0,35,0,70.19956509999975,,70.14171729999998,10,70.19956509999975,70.19956509999975,0.040808100000504055,71.20784579999963,72.33846790000007,[-0.02962962962962963],[0.4925925925925926],[1],[0],[0],[2.15647110000009],[],3,001,2024-10-10_14h41.33.700,Visual search exp,2024.1.5,None,2024-10-10 14h41.55.527581 +0530,
36,0,36,0,72.38018230000034,,72.34295490000022,5,72.38018230000034,72.38018230000034,0.022971300000790507,73.38018050000028,73.4648060999998,[0.325],[0.016666666666666666],[1],[0],[0],[1.099562800000058],['target'],3,001,2024-10-10_14h41.33.700,Visual search exp,2024.1.5,None,2024-10-10 14h41.55.527581 +0530,
37,0,37,0,73.51960450000024,,73.46906659999968,10,73.51960450000024,73.51960450000024,0.035885399999642686,74.52108099999987,74.98827729999994,[-0.06666666666666667],[-0.37592592592592594],[1],[0],[0],[1.4839263999992909],['target'],3,001,2024-10-10_14h41.33.700,Visual search exp,2024.1.5,None,2024-10-10 14h41.55.527581 +0530,
38,0,38,0,75.03706590000002,,74.9921032000002,10,75.03706590000002,75.03706590000002,0.030636499999673106,76.04712010000003,76.16079450000052,[0.3731481481481482],[0.06296296296296296],[1],[0],[0],[1.1384994999998526],['target'],3,001,2024-10-10_14h41.33.700,Visual search exp,2024.1.5,None,2024-10-10 14h41.55.527581 +0530,
39,0,39,0,76.19582580000042,,76.16504880000048,5,76.19582580000042,76.19582580000042,0.017864299999928335,77.19596749999982,77.59819520000019,[0.15833333333333333],[-0.3861111111111111],[1],[0],[0],[1.4158359000002747],['target'],3,001,2024-10-10_14h41.33.700,Visual search exp,2024.1.5,None,2024-10-10 14h41.55.527581 +0530,
40,0,40,0,77.63139349999983,,77.60290020000048,5,77.63139349999983,77.63139349999983,0.018024699999841687,78.6323026,79.0005186999997,[-0.25925925925925924],[0.22407407407407406],[1],[0],[0],[1.3801468999999997],['target'],3,001,2024-10-10_14h41.33.700,Visual search exp,2024.1.5,None,2024-10-10 14h41.55.527581 +0530,
41,0,41,0,79.05524830000013,,79.0048710000001,10,79.05524830000013,79.05524830000013,0.035191699999813864,80.06276350000007,80.59093959999973,[-0.4027777777777778],[0.33055555555555555],[1],[0],[0],[1.5514248999998017],['target'],3,001,2024-10-10_14h41.33.700,Visual search exp,2024.1.5,None,2024-10-10 14h41.55.527581 +0530,
42,0,42,0,80.64729650000027,,80.59547269999985,10,80.64729650000027,80.64729650000027,0.03599539999959234,81.65917319999971,82.64857480000046,[-0.028703703703703703],[-0.46111111111111114],[1],[0],[0],[2.0176547999999457],['target'],3,001,2024-10-10_14h41.33.700,Visual search exp,2024.1.5,None,2024-10-10 14h41.55.527581 +0530,
43,0,43,0,82.70298920000005,,82.65325639999992,10,82.70298920000005,82.70298920000005,0.034539399999630405,83.71740690000024,84.15590750000047,[0.3111111111111111],[-0.2111111111111111],[1],[0],[0],[1.4686998999995922],['target'],3,001,2024-10-10_14h41.33.700,Visual search exp,2024.1.5,None,2024-10-10 14h41.55.527581 +0530,
44,0,44,0,84.21062919999986,,84.16069049999987,10,84.21062919999986,84.21062919999986,0.03486999999950058,85.21961139999985,85.46273430000019,[-0.21666666666666667],[0.2740740740740741],[1],[0],[0],[1.2678304999999455],['target'],3,001,2024-10-10_14h41.33.700,Visual search exp,2024.1.5,None,2024-10-10 14h41.55.527581 +0530,
45,0,45,0,85.51748810000026,,85.46717220000028,10,85.51748810000026,85.51748810000026,0.035178399999495014,86.52558750000026,87.72001460000047,[-0.10092592592592593],[0.05092592592592592],[1],[0],[0],[2.2183591000002707],['target'],3,001,2024-10-10_14h41.33.700,Visual search exp,2024.1.5,None,2024-10-10 14h41.55.527581 +0530,
46,0,46,0,87.7533156999998,,87.72433230000024,5,87.7533156999998,87.7533156999998,0.0182608999994045,88.76187269999991,89.43823350000002,[0.3861111111111111],[0.39814814814814814],[1],[0],[0],[1.6959992000001876],['target'],3,001,2024-10-10_14h41.33.700,Visual search exp,2024.1.5,None,2024-10-10 14h41.55.527581 +0530,
47,0,47,0,89.51173889999973,,89.44697290000022,10,89.51173889999973,89.51173889999973,0.050534500000139815,90.51639119999982,92.26202459999968,[-0.13703703703703704],[0.3787037037037037],[1],[0],[0],[2.765876099999332],['target'],3,001,2024-10-10_14h41.33.700,Visual search exp,2024.1.5,None,2024-10-10 14h41.55.527581 +0530,
48,0,48,0,92.31873559999985,,92.26672959999996,10,92.31873559999985,92.31873559999985,0.03665920000003098,93.31521690000045,94.32108900000003,[0.1388888888888889],[-0.4],[1],[0],[0],[2.018389500000012],['target'],3,001,2024-10-10_14h41.33.700,Visual search exp,2024.1.5,None,2024-10-10 14h41.55.527581 +0530,
49,0,49,0,94.3561378000004,,94.32538139999997,5,94.3561378000004,94.3561378000004,0.019363200000043435,95.35647640000025,95.64149689999977,[0.2861111111111111],[-0.17685185185185184],[1],[0],[0],[1.2973171000003276],['target'],3,001,2024-10-10_14h41.33.700,Visual search exp,2024.1.5,None,2024-10-10 14h41.55.527581 +0530,
50,0,50,0,95.67423169999984,,95.64579179999964,5,95.67423169999984,95.67423169999984,0.018045799999526935,,96.62752189999992,[0.07314814814814814],[0.24351851851851852],[1],[0],[0],[0.9642361000005621],['target'],3,001,2024-10-10_14h41.33.700,Visual search exp,2024.1.5,None,2024-10-10 14h41.55.527581 +0530,
51,0,51,0,96.6601510999999,,96.63190099999974,5,96.6601510999999,96.6601510999999,0.017828100000770064,97.66272409999965,97.91375810000045,[0.44537037037037036],[-0.12962962962962962],[1],[0],[0],[1.264487299999928],['target'],3,001,2024-10-10_14h41.33.700,Visual search exp,2024.1.5,None,2024-10-10 14h41.55.527581 +0530,
52,0,52,0,97.96932430000015,,97.91837469999973,10,97.96932430000015,97.96932430000015,0.03630040000007284,98.98322619999999,100.95471120000002,[-0.05462962962962963],[-0.41944444444444445],[1],[0],[0],[3.000625800000307],['target'],3,001,2024-10-10_14h41.33.700,Visual search exp,2024.1.5,None,2024-10-10 14h41.55.527581 +0530,
53,0,53,0,101.00949709999986,,100.95914129999983,10,101.00949709999986,101.00949709999986,0.03572379999968689,102.01735629999985,102.28040990000045,[-0.1962962962962963],[-0.17962962962962964],[1],[0],[0],[1.286039499999788],['target'],3,001,2024-10-10_14h41.33.700,Visual search exp,2024.1.5,None,2024-10-10 14h41.55.527581 +0530,
54,0,54,0,102.32316079999964,,102.2855110999999,5,102.32316079999964,102.32316079999964,0.02489659999992,103.32953749999979,103.71536180000021,[-0.34814814814814815],[0.17222222222222222],[1],[0],[0],[1.4059247000004689],['target'],3,001,2024-10-10_14h41.33.700,Visual search exp,2024.1.5,None,2024-10-10 14h41.55.527581 +0530,
55,0,55,0,103.75871949999964,,103.72237169999971,5,103.75871949999964,103.75871949999964,0.024559799999224197,104.76554790000046,105.45007720000012,[-0.1787037037037037],[-0.10277777777777777],[1],[0],[0],[1.7043758999998317],['target'],3,001,2024-10-10_14h41.33.700,Visual search exp,2024.1.5,None,2024-10-10 14h41.55.527581 +0530,
56,0,56,0,105.50442230000044,,105.45445829999971,10,105.50442230000044,105.50442230000044,0.034830899999178655,106.50620160000017,107.09206770000037,[0.3861111111111111],[-0.32407407407407407],[1],[0],[0],[1.603277700000035],['target'],3,001,2024-10-10_14h41.33.700,Visual search exp,2024.1.5,None,2024-10-10 14h41.55.527581 +0530,
57,0,57,0,107.14862410000023,,107.09684939999988,10,107.14862410000023,107.14862410000023,0.035989599999993516,108.15157619999991,109.27804629999991,[-0.16666666666666666],[-0.24814814814814815],[1],[0],[0],[2.1455635000002076],['target'],3,001,2024-10-10_14h41.33.700,Visual search exp,2024.1.5,None,2024-10-10 14h41.55.527581 +0530,
58,0,58,0,109.31110609999996,,109.28236360000028,5,109.31110609999996,109.31110609999996,0.01824560000022757,110.31210420000025,110.36377989999983,[0.13703703703703704],[-0.08518518518518518],[1],[0],[0],[1.0637888999999632],['target'],3,001,2024-10-10_14h41.33.700,Visual search exp,2024.1.5,None,2024-10-10 14h41.55.527581 +0530,
59,0,59,0,110.41848310000023,,110.3681217000003,10,110.41848310000023,110.41848310000023,0.03556049999951938,111.4259406000001,111.78723450000052,[-0.30185185185185187],[-0.27685185185185185],[1],[0],[0],[1.3840478000001895],['target'],3,001,2024-10-10_14h41.33.700,Visual search exp,2024.1.5,None,2024-10-10 14h41.55.527581 +0530,
60,0,60,0,111.82114400000046,,111.79187189999993,5,111.82114400000046,111.82114400000046,0.018080599999848346,112.82257889999983,115.0056297000001,[-0.1287037037037037],[0.4601851851851852],[1],[0],[0],[3.196227999999792],['target'],3,001,2024-10-10_14h41.33.700,Visual search exp,2024.1.5,None,2024-10-10 14h41.55.527581 +0530,
61,0,61,0,115.03893719999996,,115.01026120000006,5,115.03893719999996,115.03893719999996,0.01824080000005779,116.04097379999985,116.94158940000034,[-0.49074074074074076],[0.4546296296296296],[1],[0],[0],[1.9136377999993783],['target'],3,001,2024-10-10_14h41.33.700,Visual search exp,2024.1.5,None,2024-10-10 14h41.55.527581 +0530,
62,0,62,0,116.99778359999982,,116.94585139999981,10,116.99778359999982,116.99778359999982,0.035978699999759556,118.00756480000018,119.14913849999994,[-0.4685185185185185],[0.002777777777777778],[1],[0],[0],[2.167620600000191],['target'],3,001,2024-10-10_14h41.33.700,Visual search exp,2024.1.5,None,2024-10-10 14h41.55.527581 +0530,
63,0,63,0,119.20786520000001,,119.15344110000024,10,119.20786520000001,119.20786520000001,0.03742119999969873,120.22145079999973,121.07151929999964,[-0.3],[-0.2833333333333333],[1],[0],[0],[1.8812434000001304],['target'],3,001,2024-10-10_14h41.33.700,Visual search exp,2024.1.5,None,2024-10-10 14h41.55.527581 +0530,
64,0,64,0,121.10584860000017,,121.07588349999969,5,121.10584860000017,121.10584860000017,0.018208299999969313,122.10766130000047,124.3570724000001,[0.4212962962962963],[0.06944444444444445],[1],[0],[0],[3.2635731999998825],['target'],3,001,2024-10-10_14h41.33.700,Visual search exp,2024.1.5,None,2024-10-10 14h41.55.527581 +0530,
65,0,65,0,124.39089760000024,,124.3617707000003,5,124.39089760000024,124.39089760000024,0.01829020000059245,125.39188360000026,127.1091263999997,[-0.2851851851851852],[-0.3453703703703704],[1],[0],[0],[2.72950899999978],['target'],3,001,2024-10-10_14h41.33.700,Visual search exp,2024.1.5,None,2024-10-10 14h41.55.527581 +0530,
66,0,66,0,127.16634470000008,,127.11352390000047,10,127.16634470000008,127.16634470000008,0.03764059999957681,128.16760169999998,131.04706050000004,[-0.16574074074074074],[0.23148148148148148],[1],[0],[0],[3.8965635999993538],['target'],3,001,2024-10-10_14h41.33.700,Visual search exp,2024.1.5,None,2024-10-10 14h41.55.527581 +0530,
67,0,67,0,131.1023481000002,,131.05142109999997,10,131.1023481000002,131.1023481000002,0.03593319999981759,132.1088289999998,132.27094339999985,[-0.26296296296296295],[0.2101851851851852],[1],[0],[0],[1.1841658000003008],['target'],3,001,2024-10-10_14h41.33.700,Visual search exp,2024.1.5,None,2024-10-10 14h41.55.527581 +0530,
68,0,68,0,132.33047590000024,,132.27571689999968,10,132.33047590000024,132.33047590000024,0.035214699999414734,133.33523539999987,134.6027823000004,[0.13425925925925927],[-0.3962962962962963],[1],[0],[0],[2.29239299999972],['target'],3,001,2024-10-10_14h41.33.700,Visual search exp,2024.1.5,None,2024-10-10 14h41.55.527581 +0530,
69,0,69,0,134.63636589999987,,134.60723830000006,5,134.63636589999987,134.63636589999987,0.01845370000046387,135.6376148999998,135.92286830000012,[0.43333333333333335],[0.14537037037037037],[1],[0],[0],[1.2976840999999695],['target'],3,001,2024-10-10_14h41.33.700,Visual search exp,2024.1.5,None,2024-10-10 14h41.55.527581 +0530,
70,0,70,0,135.96232260000033,,135.92789220000031,5,135.96232260000033,135.96232260000033,0.02162399999997433,136.97376929999973,136.9754155999999,[0.4666666666666667],[0.20462962962962963],[1],[0],[0],[1.0265777000004164],['target'],3,001,2024-10-10_14h41.33.700,Visual search exp,2024.1.5,None,2024-10-10 14h41.55.527581 +0530,
71,0,71,0,137.02889700000014,,136.9797067999998,10,137.02889700000014,137.02889700000014,0.03419590000066819,,137.8600481000003,[0.39537037037037037],[0.046296296296296294],[1],[0],[0],[0.8467233999999735],['target'],3,001,2024-10-10_14h41.33.700,Visual search exp,2024.1.5,None,2024-10-10 14h41.55.527581 +0530,
72,0,72,0,137.89434849999998,,137.86496009999973,5,137.89434849999998,137.89434849999998,0.018883599999753642,138.9005659000004,139.3699314000005,[0.014814814814814815],[0.1398148148148148],[1],[0],[0],[1.4865616000006412],['target'],3,001,2024-10-10_14h41.33.700,Visual search exp,2024.1.5,None,2024-10-10 14h41.55.527581 +0530,
73,0,73,0,139.40651100000014,,139.37423539999963,5,139.40651100000014,139.40651100000014,0.019858399999975518,140.42088460000014,140.48862840000038,[0.3314814814814815],[0.3509259259259259],[1],[0],[0],[1.095092300000033],[],3,001,2024-10-10_14h41.33.700,Visual search exp,2024.1.5,None,2024-10-10 14h41.55.527581 +0530,
74,0,74,0,140.54352780000045,,140.49336849999963,10,140.54352780000045,140.54352780000045,0.03512900000077934,141.54658990000007,141.61354389999997,[-0.025],[0.16018518518518518],[1],[0],[0],[1.0855977999999595],['target'],3,001,2024-10-10_14h41.33.700,Visual search exp,2024.1.5,None,2024-10-10 14h41.55.527581 +0530,
75,0,75,0,141.6478016000001,,141.6182117999997,5,141.6478016000001,141.6478016000001,0.0191912999998749,142.64828860000034,142.8162994000004,[0.32222222222222224],[0.2],[1],[0],[0],[1.1794935999996596],[],3,001,2024-10-10_14h41.33.700,Visual search exp,2024.1.5,None,2024-10-10 14h41.55.527581 +0530,
76,0,76,0,142.8504125999998,,142.82095469999967,5,142.8504125999998,142.8504125999998,0.018449199999849952,143.8516110999999,144.36936270000024,[0.1675925925925926],[-0.3990740740740741],[1],[0],[0],[1.5303971999992427],['target'],3,001,2024-10-10_14h41.33.700,Visual search exp,2024.1.5,None,2024-10-10 14h41.55.527581 +0530,
77,0,77,0,144.42438240000047,,144.37379839999994,10,144.42438240000047,144.42438240000047,0.03497520000018994,145.43191540000043,145.51611820000016,[0.28425925925925927],[-0.10648148148148148],[1],[0],[0],[1.1079910999997082],['target'],3,001,2024-10-10_14h41.33.700,Visual search exp,2024.1.5,None,2024-10-10 14h41.55.527581 +0530,
78,0,78,0,145.57097859999976,,145.5210834999998,10,145.57097859999976,145.57097859999976,0.034756199999719684,146.5848090999998,147.38123350000023,[-0.22407407407407406],[-0.3175925925925926],[1],[0],[0],[1.8259452000002057],['target'],3,001,2024-10-10_14h41.33.700,Visual search exp,2024.1.5,None,2024-10-10 14h41.55.527581 +0530,
79,0,79,0,147.43690950000018,,147.38572850000037,10,147.43690950000018,147.43690950000018,0.03574980000030337,148.45076320000044,148.8591593000001,[0.30277777777777776],[0.06666666666666667],[1],[0],[0],[1.4382694000005358],['target'],3,001,2024-10-10_14h41.33.700,Visual search exp,2024.1.5,None,2024-10-10 14h41.55.527581 +0530,
80,0,80,0,148.9168010000003,,148.8634916000001,10,148.9168010000003,148.9168010000003,0.03740410000045813,149.92366029999994,151.38264460000028,[-0.3638888888888889],[-0.4222222222222222],[1],[0],[0],[2.4823231999998825],['target'],3,001,2024-10-10_14h41.33.700,Visual search exp,2024.1.5,None,2024-10-10 14h41.55.527581 +0530,
81,0,81,0,151.41571380000005,,151.38739239999995,5,151.41571380000005,151.41571380000005,0.017729500000314147,152.41785660000005,152.70283410000047,[-0.1537037037037037],[0.053703703703703705],[1],[0],[0],[1.298283099999935],['target'],3,001,2024-10-10_14h41.33.700,Visual search exp,2024.1.5,None,2024-10-10 14h41.55.527581 +0530,
82,0,82,0,152.75772200000029,,152.70721649999996,10,152.75772200000029,152.75772200000029,0.03569789999983186,153.76680839999972,154.6927155000003,[-0.34629629629629627],[-0.30092592592592593],[1],[0],[0],[1.9504105000005438],['target'],3,001,2024-10-10_14h41.33.700,Visual search exp,2024.1.5,None,2024-10-10 14h41.55.527581 +0530,
83,0,83,0,154.74785750000046,,154.6971964000004,10,154.74785750000046,154.74785750000046,0.03526010000041424,155.75779200000034,156.2198472,[-0.2222222222222222],[0.05277777777777778],[1],[0],[0],[1.4876727999999275],['target'],3,001,2024-10-10_14h41.33.700,Visual search exp,2024.1.5,None,2024-10-10 14h41.55.527581 +0530,
84,0,84,0,156.2599310000005,,156.2268297999999,5,156.2599310000005,156.2599310000005,0.021834099999978207,157.26805500000046,157.9189279000002,[-0.2814814814814815],[-0.08055555555555556],[1],[0],[0],[1.6713527000001704],['target'],3,001,2024-10-10_14h41.33.700,Visual search exp,2024.1.5,None,2024-10-10 14h41.55.527581 +0530,
85,0,85,0,157.9531839000001,,157.9240405999999,5,157.9531839000001,157.9531839000001,0.018275200000061886,158.95438869999998,159.50537299999996,[-0.23055555555555557],[-0.44074074074074077],[1],[0],[0],[1.5636586999999054],['target'],3,001,2024-10-10_14h41.33.700,Visual search exp,2024.1.5,None,2024-10-10 14h41.55.527581 +0530,
86,0,86,0,159.53851349999968,,159.50976170000013,5,159.53851349999968,159.53851349999968,0.01821040000049834,160.5404593000003,161.10797280000043,[0.4638888888888889],[0.1361111111111111],[1],[0],[0],[1.5806056000001263],['target'],3,001,2024-10-10_14h41.33.700,Visual search exp,2024.1.5,None,2024-10-10 14h41.55.527581 +0530,
87,0,87,0,161.1415465,,161.1123134999998,5,161.1415465,161.1415465,0.017925600000125996,162.14337549999982,162.61121639999965,[0.14537037037037037],[0.362962962962963],[1],[0],[0],[1.4816008999996484],['target'],3,001,2024-10-10_14h41.33.700,Visual search exp,2024.1.5,None,2024-10-10 14h41.55.527581 +0530,
88,0,88,0,162.66608780000024,,162.61575509999966,10,162.66608780000024,162.66608780000024,0.03580669999973907,163.66697410000052,163.83508700000039,[0.1685185185185185],[0.26296296296296295],[1],[0],[0],[1.1841425000002346],['target'],3,001,2024-10-10_14h41.33.700,Visual search exp,2024.1.5,None,2024-10-10 14h41.55.527581 +0530,
89,0,89,0,163.89042719999998,,163.8397485000005,10,163.89042719999998,163.89042719999998,0.03557199999977456,164.89097589999983,165.67584350000016,[-0.30648148148148147],[-0.36203703703703705],[1],[0],[0],[1.8011059999998906],['target'],3,001,2024-10-10_14h41.33.700,Visual search exp,2024.1.5,None,2024-10-10 14h41.55.527581 +0530,
90,0,90,0,165.70942470000045,,165.6809043000003,5,165.70942470000045,165.70942470000045,0.01770459999988816,166.71050490000016,166.99521470000036,[-0.04351851851851852],[0.05277777777777778],[1],[0],[0],[1.297168000000056],['target'],3,001,2024-10-10_14h41.33.700,Visual search exp,2024.1.5,None,2024-10-10 14h41.55.527581 +0530,
91,0,91,0,167.04977549999967,,166.99950640000043,10,167.04977549999967,167.04977549999967,0.0352007000001322,168.06320870000036,169.63439240000025,[0.022222222222222223],[-0.012962962962962963],[1],[0],[0],[2.600063400000181],['target'],3,001,2024-10-10_14h41.33.700,Visual search exp,2024.1.5,None,2024-10-10 14h41.55.527581 +0530,
92,0,92,0,169.68938590000016,,169.6388162000003,10,169.68938590000016,169.68938590000016,0.03577119999954448,170.70295910000004,171.44062600000052,[0.1638888888888889],[-0.29444444444444445],[1],[0],[0],[1.766660199999933],['target'],3,001,2024-10-10_14h41.33.700,Visual search exp,2024.1.5,None,2024-10-10 14h41.55.527581 +0530,
93,0,93,0,171.49747920000027,,171.44499929999984,10,171.49747920000027,171.49747920000027,0.03672959999948944,172.50347659999989,172.73259229999985,[-0.010185185185185186],[-0.3638888888888889],[1],[0],[0],[1.2513552999998865],['target'],3,001,2024-10-10_14h41.33.700,Visual search exp,2024.1.5,None,2024-10-10 14h41.55.527581 +0530,
94,0,94,0,172.76586899999984,,172.73735320000014,5,172.76586899999984,172.76586899999984,0.01786530000026687,173.76659370000016,174.16834500000004,[-0.1388888888888889],[-0.46574074074074073],[1],[0],[0],[1.4134579999999914],['target'],3,001,2024-10-10_14h41.33.700,Visual search exp,2024.1.5,None,2024-10-10 14h41.55.527581 +0530,
95,0,95,0,174.2239480999997,,174.17305940000006,10,174.2239480999997,174.2239480999997,0.035771800000475196,,175.12519410000004,[-0.1638888888888889],[-0.4537037037037037],[1],[0],[0],[0.9168726999996579],['target'],3,001,2024-10-10_14h41.33.700,Visual search exp,2024.1.5,None,2024-10-10 14h41.55.527581 +0530,
96,0,96,0,175.18209670000033,,175.12948469999992,10,175.18209670000033,175.18209670000033,0.03479400000014721,176.18567239999993,176.18755500000043,[-0.25],[-0.3787037037037037],[1],[0],[0],[1.0238135999998121],['target'],3,001,2024-10-10_14h41.33.700,Visual search exp,2024.1.5,None,2024-10-10 14h41.55.527581 +0530,
97,0,97,0,176.2210958000005,,176.1922752999999,5,176.2210958000005,176.2210958000005,0.018159100000048056,177.23501719999967,178.4193482999999,[0.09166666666666666],[0.462037037037037],[1],[0],[0],[2.2093785999995816],['target'],3,001,2024-10-10_14h41.33.700,Visual search exp,2024.1.5,None,2024-10-10 14h41.55.527581 +0530,
98,0,98,0,178.4530292999998,,178.42383160000009,5,178.4530292999998,178.4530292999998,0.018524799999795505,179.45355560000007,180.12084099999993,[-0.09259259259259259],[-0.06296296296296296],[1],[0],[0],[1.6790717000003497],['target'],3,001,2024-10-10_14h41.33.700,Visual search exp,2024.1.5,None,2024-10-10 14h41.55.527581 +0530,
99,0,99,0,180.15409499999987,,180.1251640999999,5,180.15409499999987,180.15409499999987,0.01843619999999646,181.15575040000022,181.20697819999987,[-0.06296296296296296],[-0.28703703703703703],[1],[0],[0],[1.0638610000005428],['target'],3,001,2024-10-10_14h41.33.700,Visual search exp,2024.1.5,None,2024-10-10 14h41.55.527581 +0530,
100,0,100,0,181.23988029999964,,181.21133290000034,5,181.23988029999964,181.23988029999964,0.017965400000321097,182.24249849999978,182.74367429999984,[-0.43425925925925923],[0.22407407407407406],[1],[0],[0],[1.5150032999999894],['target'],3,001,2024-10-10_14h41.33.700,Visual search exp,2024.1.5,None,2024-10-10 14h41.55.527581 +0530,
101,0,101,0,182.8013560999998,,182.74807380000038,10,182.8013560999998,182.8013560999998,0.03556879999996454,183.80822780000017,184.76704340000015,[-0.3861111111111111],[-0.16574074074074074],[1],[0],[0],[1.9839515999992727],['target'],3,001,2024-10-10_14h41.33.700,Visual search exp,2024.1.5,None,2024-10-10 14h41.55.527581 +0530,
102,0,102,0,184.8004808000005,,184.77139739999984,5,184.8004808000005,184.8004808000005,0.01822939999965456,185.80134180000005,186.03648919999978,[-0.10833333333333334],[-0.4148148148148148],[1],[0],[0],[1.2474468000000343],['target'],3,001,2024-10-10_14h41.33.700,Visual search exp,2024.1.5,None,2024-10-10 14h41.55.527581 +0530,
103,0,103,0,186.0703626000004,,186.0412392999997,5,186.0703626000004,186.0703626000004,0.01843670000016573,187.07184479999978,187.12320209999962,[-0.08611111111111111],[-0.13796296296296295],[1],[0],[0],[1.0640763999999763],['target'],3,001,2024-10-10_14h41.33.700,Visual search exp,2024.1.5,None,2024-10-10 14h41.55.527581 +0530,
104,0,104,0,187.17731699999968,,187.12764080000034,10,187.17731699999968,187.17731699999968,0.034999299999981304,188.19017230000009,189.69898160000048,[0.32407407407407407],[-0.4824074074074074],[1],[0],[0],[2.536926100000528],['target'],3,001,2024-10-10_14h41.33.700,Visual search exp,2024.1.5,None,2024-10-10 14h41.55.527581 +0530,
105,0,105,0,189.7330082999997,,189.70366790000026,5,189.7330082999997,189.7330082999997,0.018641000000570784,190.73385489999964,191.38514010000017,[-0.47962962962962963],[-0.25462962962962965],[1],[0],[0],[1.663404800000535],['target'],3,001,2024-10-10_14h41.33.700,Visual search exp,2024.1.5,None,2024-10-10 14h41.55.527581 +0530,
106,0,106,0,191.41862579999997,,191.38936939999985,5,191.41862579999997,191.41862579999997,0.017679699999462173,192.4201995000003,192.95490859999973,[0.21481481481481482],[-0.026851851851851852],[1],[0],[0],[1.5483277000003],['target'],3,001,2024-10-10_14h41.33.700,Visual search exp,2024.1.5,None,2024-10-10 14h41.55.527581 +0530,
107,0,107,0,193.00939000000017,,192.95967399999972,10,193.00939000000017,193.00939000000017,0.034770600000229024,194.01212829999986,195.36644270000033,[-0.21203703703703702],[-0.20277777777777778],[1],[0],[0],[2.3725580999998783],['target'],3,001,2024-10-10_14h41.33.700,Visual search exp,2024.1.5,None,2024-10-10 14h41.55.527581 +0530,
108,0,108,0,195.42721489999985,,195.37083119999988,10,195.42721489999985,195.42721489999985,0.0369594000003417,,196.23107919999984,[-0.16574074074074074],[-0.20833333333333334],[1],[0],[0],[0.8238339000008637],['target'],3,001,2024-10-10_14h41.33.700,Visual search exp,2024.1.5,None,2024-10-10 14h41.55.527581 +0530,
109,0,109,0,196.29363490000014,,196.2358131000001,10,196.29363490000014,196.29363490000014,0.039594599999873026,197.29523719999997,197.82756599999993,[-0.023148148148148147],[0.3138888888888889],[1],[0],[0],[1.552781800000048],['target'],3,001,2024-10-10_14h41.33.700,Visual search exp,2024.1.5,None,2024-10-10 14h41.55.527581 +0530,
110,0,110,0,197.8832566000001,,197.83182190000025,10,197.8832566000001,197.8832566000001,0.03665709999950195,198.88623619999998,199.65391679999993,[-0.4305555555555556],[-0.44722222222222224],[1],[0],[0],[1.7860073000001648],['target'],3,001,2024-10-10_14h41.33.700,Visual search exp,2024.1.5,None,2024-10-10 14h41.55.527581 +0530,
111,0,111,0,199.69283629999973,,199.65823869999986,5,199.69283629999973,199.69283629999973,0.021082299999761744,200.70152690000032,200.93607150000025,[-0.4537037037037037],[0.30277777777777776],[1],[0],[0],[1.2572073999999702],['target'],3,001,2024-10-10_14h41.33.700,Visual search exp,2024.1.5,None,2024-10-10 14h41.55.527581 +0530,
112,0,112,0,200.96962379999968,,200.94049509999968,5,200.96962379999968,200.96962379999968,0.018094899999596237,201.9705414,202.05573040000036,[-0.04537037037037037],[-0.1935185185185185],[1],[0],[0],[1.0978216000003158],['target'],3,001,2024-10-10_14h41.33.700,Visual search exp,2024.1.5,None,2024-10-10 14h41.55.527581 +0530,
113,0,113,0,202.09410079999998,,202.06130800000028,5,202.09410079999998,202.09410079999998,0.020556999999826076,203.1076949999997,203.27619080000022,[0.36666666666666664],[-0.014814814814814815],[1],[0],[0],[1.1952940999999555],['target'],3,001,2024-10-10_14h41.33.700,Visual search exp,2024.1.5,None,2024-10-10 14h41.55.527581 +0530,
114,0,114,0,203.33133989999988,,203.28095779999967,10,203.33133989999988,203.33133989999988,0.03551130000050762,204.34343629999967,205.8197167999997,[-0.45555555555555555],[0.3787037037037037],[1],[0],[0],[2.5038555000000997],['target'],3,001,2024-10-10_14h41.33.700,Visual search exp,2024.1.5,None,2024-10-10 14h41.55.527581 +0530,
115,0,115,0,205.87801219999983,,205.82401159999972,10,205.87801219999983,205.87801219999983,0.03765370000019175,206.89046750000034,210.8934433000004,[0.12407407407407407],[-0.262037037037037],[1],[0],[0],[5.032338699999855],['target'],3,001,2024-10-10_14h41.33.700,Visual search exp,2024.1.5,None,2024-10-10 14h41.55.527581 +0530,
116,0,116,0,210.9475362000003,,210.89815329999965,10,210.9475362000003,210.9475362000003,0.034563600000183214,211.94941159999962,212.55454629999986,[-0.15555555555555556],[0.18333333333333332],[1],[0],[0],[1.622235400000136],['target'],3,001,2024-10-10_14h41.33.700,Visual search exp,2024.1.5,None,2024-10-10 14h41.55.527581 +0530,
117,0,117,0,212.61240110000017,,212.55922240000018,10,212.61240110000017,212.61240110000017,0.03642909999962285,213.61605039999995,214.27156550000018,[-0.06851851851851852],[-0.2824074074074074],[1],[0],[0],[1.6764755999993213],['target'],3,001,2024-10-10_14h41.33.700,Visual search exp,2024.1.5,None,2024-10-10 14h41.55.527581 +0530,
118,0,118,0,214.32893779999995,,214.2758948999999,10,214.32893779999995,214.32893779999995,0.036565600000358245,215.3446845999997,215.58050079999975,[-0.4638888888888889],[0.11018518518518519],[1],[0],[0],[1.2686159999993833],['target'],3,001,2024-10-10_14h41.33.700,Visual search exp,2024.1.5,None,2024-10-10 14h41.55.527581 +0530,
119,0,119,0,215.61379409999972,,215.58489559999998,5,215.61379409999972,215.61379409999972,0.018120200000339537,216.61456269999962,216.86616130000039,[0.1648148148148148],[-0.4351851851851852],[1],[0],[0],[1.2638160999995307],['target'],3,001,2024-10-10_14h41.33.700,Visual search exp,2024.1.5,None,2024-10-10 14h41.55.527581 +0530,
120,0,120,0,216.90067890000046,,216.87048680000044,5,216.90067890000046,216.90067890000046,0.01770250000026863,217.9008945000005,218.16879890000018,[-0.2601851851851852],[-0.4398148148148148],[1],[0],[0],[1.2811533999993117],['target'],3,001,2024-10-10_14h41.33.700,Visual search exp,2024.1.5,None,2024-10-10 14h41.55.527581 +0530,
121,0,121,0,218.2019677999997,,218.1732793000001,5,218.2019677999997,218.2019677999997,0.017865000000711007,219.20362019999993,219.33768260000033,[-0.2935185185185185],[-0.24166666666666667],[1],[0],[0],[1.1471099999998842],['target'],3,001,2024-10-10_14h41.33.700,Visual search exp,2024.1.5,None,2024-10-10 14h41.55.527581 +0530,
122,0,122,0,219.37126110000008,,219.34226240000044,5,219.37126110000008,219.37126110000008,0.017795799999476003,220.3729169999997,221.15720359999978,[0.33240740740740743],[0.27685185185185185],[1],[0],[0],[1.7977881999995589],['target'],3,001,2024-10-10_14h41.33.700,Visual search exp,2024.1.5,None,2024-10-10 14h41.55.527581 +0530,
123,0,123,0,221.1931413000002,,221.1618408000004,5,221.1931413000002,221.1931413000002,0.0196617999999944,222.20929570000044,222.69370760000038,[0.4638888888888889],[-0.06666666666666667],[1],[0],[0],[1.512781399999767],['target'],3,001,2024-10-10_14h41.33.700,Visual search exp,2024.1.5,None,2024-10-10 14h41.55.527581 +0530,
124,0,124,0,222.7512238999998,,222.6981635000002,10,222.7512238999998,222.7512238999998,0.03759349999927508,223.7663924999997,224.36758370000007,[-0.3037037037037037],[-0.12129629629629629],[1],[0],[0],[1.632456700000148],['target'],3,001,2024-10-10_14h41.33.700,Visual search exp,2024.1.5,None,2024-10-10 14h41.55.527581 +0530,
125,0,125,0,224.40134829999988,,224.37218850000045,5,224.40134829999988,224.40134829999988,0.018701099999816506,225.4024116999999,226.3031989000001,[-0.3731481481481482],[0.42962962962962964],[1],[0],[0],[1.9129098000003069],['target'],3,001,2024-10-10_14h41.33.700,Visual search exp,2024.1.5,None,2024-10-10 14h41.55.527581 +0530,
126,0,126,0,226.3574421000003,,226.30788510000002,10,226.3574421000003,226.3574421000003,0.03488680000009481,227.3556281000001,227.77126289999978,[-0.18333333333333332],[0.21666666666666667],[1],[0],[0],[1.4289294999998674],['target'],3,001,2024-10-10_14h41.33.700,Visual search exp,2024.1.5,None,2024-10-10 14h41.55.527581 +0530,
127,0,127,0,227.82529040000009,,227.7760662999999,10,227.82529040000009,227.82529040000009,0.03463240000019141,228.84051689999978,229.3961448,[-0.5018518518518519],[-0.08888888888888889],[1],[0],[0],[1.585891100000481],['target'],3,001,2024-10-10_14h41.33.700,Visual search exp,2024.1.5,None,2024-10-10 14h41.55.527581 +0530,
128,0,128,0,229.42901789999996,,229.40080880000005,5,229.42901789999996,229.42901789999996,0.017715400000270165,230.4306720000004,230.81750629999988,[0.046296296296296294],[0.25555555555555554],[1],[0],[0],[1.3994427999996333],['target'],3,001,2024-10-10_14h41.33.700,Visual search exp,2024.1.5,None,2024-10-10 14h41.55.527581 +0530,
129,0,129,0,230.85082969999985,,230.82191750000038,5,230.85082969999985,230.85082969999985,0.01830370000061521,231.85068500000034,232.11875659999987,[0.1638888888888889],[0.4074074074074074],[1],[0],[0],[1.2791186000004018],['target'],3,001,2024-10-10_14h41.33.700,Visual search exp,2024.1.5,None,2024-10-10 14h41.55.527581 +0530,
130,0,130,0,232.15222950000043,,232.12333579999995,5,232.15222950000043,232.15222950000043,0.018123300000297604,233.15337139999974,233.3383872000004,[0.2212962962962963],[0.16203703703703703],[1],[0],[0],[1.1974718000001303],['target'],3,001,2024-10-10_14h41.33.700,Visual search exp,2024.1.5,None,2024-10-10 14h41.55.527581 +0530,
131,0,131,0,233.39359200000035,,233.34302260000004,10,233.39359200000035,233.39359200000035,0.034186200000476674,234.39720360000047,234.57950749999964,[-0.007407407407407408],[0.18055555555555555],[1],[0],[0],[1.2026402000001326],['target'],3,001,2024-10-10_14h41.33.700,Visual search exp,2024.1.5,None,2024-10-10 14h41.55.527581 +0530,
132,0,132,0,234.61266179999984,,234.58381149999968,5,234.61266179999984,234.61266179999984,0.01848710000012943,235.61421700000028,235.98258319999968,[0.15185185185185185],[0.15648148148148147],[1],[0],[0],[1.3806725999993432],['target'],3,001,2024-10-10_14h41.33.700,Visual search exp,2024.1.5,None,2024-10-10 14h41.55.527581 +0530,
133,0,133,0,236.01616829999966,,235.98685690000002,5,236.01616829999966,236.01616829999966,0.018622300000060932,237.01716229999965,237.06888789999994,[-0.14537037037037037],[0.3111111111111111],[1],[0],[0],[1.0639605999995183],['target'],3,001,2024-10-10_14h41.33.700,Visual search exp,2024.1.5,None,2024-10-10 14h41.55.527581 +0530,
134,0,134,0,237.12199390000023,,237.07348660000025,10,237.12199390000023,237.12199390000023,0.033939599999939674,238.12355230000048,239.71108519999962,[-0.32685185185185184],[-0.4324074074074074],[1],[0],[0],[2.604219199999534],['target'],3,001,2024-10-10_14h41.33.700,Visual search exp,2024.1.5,None,2024-10-10 14h41.55.527581 +0530,
135,0,135,0,239.74566380000033,,239.71539800000028,5,239.74566380000033,239.74566380000033,0.01820510000015929,240.74689300000045,240.84913899999992,[-0.15555555555555556],[-0.06481481481481481],[1],[0],[0],[1.116052700000182],['target'],3,001,2024-10-10_14h41.33.700,Visual search exp,2024.1.5,None,2024-10-10 14h41.55.527581 +0530,
136,0,136,0,240.88225109999985,,240.85347600000023,5,240.88225109999985,240.88225109999985,0.018462600000020757,241.8840422000003,242.1017612000005,[-0.19074074074074074],[0.2796296296296296],[1],[0],[0],[1.230340399999477],['target'],3,001,2024-10-10_14h41.33.700,Visual search exp,2024.1.5,None,2024-10-10 14h41.55.527581 +0530,
137,0,137,0,242.13489430000027,,242.1059965000004,5,242.13489430000027,242.13489430000027,0.017406400000254507,243.13675239999975,243.52053460000025,[0.1648148148148148],[0.03425925925925926],[1],[0],[0],[1.3976527000004353],['target'],3,001,2024-10-10_14h41.33.700,Visual search exp,2024.1.5,None,2024-10-10 14h41.55.527581 +0530,
138,0,138,0,243.57494599999973,,243.52484149999964,10,243.57494599999973,243.57494599999973,0.034599900000102934,244.57471150000038,245.01509309999983,[-0.23981481481481481],[0.31574074074074077],[1],[0],[0],[1.4562395000002653],['target'],3,001,2024-10-10_14h41.33.700,Visual search exp,2024.1.5,None,2024-10-10 14h41.55.527581 +0530,
139,0,139,0,245.0485808000003,,245.01943949999986,5,245.0485808000003,245.0485808000003,0.01823219999914727,246.04999810000027,246.60154330000023,[0.35555555555555557],[-0.014814814814814815],[1],[0],[0],[1.5642394999995304],['target'],3,001,2024-10-10_14h41.33.700,Visual search exp,2024.1.5,None,2024-10-10 14h41.55.527581 +0530,
140,0,140,0,246.63834339999994,,246.60635730000013,5,246.63834339999994,246.63834339999994,0.01932349999970029,247.63648100000046,248.38764139999967,[-0.18611111111111112],[-0.3675925925925926],[1],[0],[0],[1.7625457000003735],['target'],3,001,2024-10-10_14h41.33.700,Visual search exp,2024.1.5,None,2024-10-10 14h41.55.527581 +0530,
141,0,141,0,248.44327780000003,,248.39233160000003,10,248.44327780000003,248.44327780000003,0.0346971000008125,249.4433514000002,250.02785719999974,[-0.4027777777777778],[-0.2675925925925926],[1],[0],[0],[1.6013552000003983],['target'],3,001,2024-10-10_14h41.33.700,Visual search exp,2024.1.5,None,2024-10-10 14h41.55.527581 +0530,
142,0,142,0,250.06112870000015,,250.03225219999968,5,250.06112870000015,250.06112870000015,0.018039800000224204,251.06259180000052,251.31414779999977,[-0.19814814814814816],[0.23703703703703705],[1],[0],[0],[1.2644249000004493],['target'],3,001,2024-10-10_14h41.33.700,Visual search exp,2024.1.5,None,2024-10-10 14h41.55.527581 +0530,
143,0,143,0,251.37234230000013,,251.3186501,10,251.37234230000013,251.37234230000013,0.03641030000017054,252.38049339999998,252.92049709999992,[0.08796296296296297],[-0.020370370370370372],[1],[0],[0],[1.5660877000000255],['target'],3,001,2024-10-10_14h41.33.700,Visual search exp,2024.1.5,None,2024-10-10 14h41.55.527581 +0530,
144,0,144,0,252.95586670000012,,252.92497809999986,5,252.95586670000012,252.95586670000012,0.019133299999339215,253.95601989999977,254.2748561999997,[-0.14166666666666666],[-0.07962962962962963],[1],[0],[0],[1.3312415000000328],['target'],3,001,2024-10-10_14h41.33.700,Visual search exp,2024.1.5,None,2024-10-10 14h41.55.527581 +0530,
145,0,145,0,254.3111131000005,,254.2791483000001,5,254.3111131000005,254.3111131000005,0.019880799999555165,255.32571730000018,255.49371020000035,[0.4601851851851852],[-0.10833333333333334],[1],[0],[0],[1.195307999999386],['target'],3,001,2024-10-10_14h41.33.700,Visual search exp,2024.1.5,None,2024-10-10 14h41.55.527581 +0530,
146,0,146,0,255.52658340000016,,255.49830040000052,5,255.52658340000016,255.52658340000016,0.018219499999759137,256.5289115000005,257.1136636000001,[0.21851851851851853],[-0.14537037037037037],[1],[0],[0],[1.5978291000001263],['target'],3,001,2024-10-10_14h41.33.700,Visual search exp,2024.1.5,None,2024-10-10 14h41.55.527581 +0530,
147,0,147,0,257.16790670000046,,257.11807210000006,10,257.16790670000046,257.16790670000046,0.03516380000019126,258.1751853000005,259.42267059999995,[0.4537037037037037],[-0.39166666666666666],[1],[0],[0],[2.269883099999788],['target'],3,001,2024-10-10_14h41.33.700,Visual search exp,2024.1.5,None,2024-10-10 14h41.55.527581 +0530,
148,0,148,0,259.4688154000005,,259.42769880000014,5,259.4688154000005,259.4688154000005,0.027309799999784445,260.4760088000003,261.2838945000003,[-0.37037037037037035],[-0.3574074074074074],[1],[0],[0],[1.8295798999997714],['target'],3,001,2024-10-10_14h41.33.700,Visual search exp,2024.1.5,None,2024-10-10 14h41.55.527581 +0530,
149,0,149,0,261.31800569999996,,261.28821419999986,5,261.31800569999996,261.31800569999996,0.01813060000040423,262.31883259999995,263.02169500000036,[0.13425925925925927],[-0.07407407407407407],[1],[0],[0],[1.7153698000001896],['target'],3,001,2024-10-10_14h41.33.700,Visual search exp,2024.1.5,None,2024-10-10 14h41.55.527581 +0530,
150,0,150,0,263.09309399999984,,263.02796450000005,10,263.09309399999984,263.09309399999984,0.04597929999999906,264.09284899999966,264.11050390000037,[0.36666666666666664],[-0.03333333333333333],[1],[0],[0],[1.0366471999996065],['target'],3,001,2024-10-10_14h41.33.700,Visual search exp,2024.1.5,None,2024-10-10 14h41.55.527581 +0530,
151,0,151,0,264.16652890000023,,264.11483060000046,10,264.16652890000023,264.16652890000023,0.0361639999991894,265.1644388000004,265.77184730000045,[-0.49722222222222223],[0.375],[1],[0],[0],[1.6213791000000128],['target'],3,001,2024-10-10_14h41.33.700,Visual search exp,2024.1.5,None,2024-10-10 14h41.55.527581 +0530,
152,0,152,0,265.82744600000024,,265.7762138999997,10,265.82744600000024,265.82744600000024,0.035418899999967834,266.8283465000004,267.94967780000025,[-0.4083333333333333],[-0.3435185185185185],[1],[0],[0],[2.1384957999998733],['target'],3,001,2024-10-10_14h41.33.700,Visual search exp,2024.1.5,None,2024-10-10 14h41.55.527581 +0530,
153,0,153,0,268.00654889999987,,267.9541294999999,10,268.00654889999987,268.00654889999987,0.03514110000014625,269.0135769999997,269.6945510000005,[-0.17222222222222222],[-0.32685185185185184],[1],[0],[0],[1.7059355000001233],['target'],3,001,2024-10-10_14h41.33.700,Visual search exp,2024.1.5,None,2024-10-10 14h41.55.527581 +0530,
154,0,154,0,269.73313190000044,,269.69895970000016,5,269.73313190000044,269.73313190000044,0.02025199999934557,270.7501007000001,271.2977246999999,[0.4111111111111111],[0.2564814814814815],[1],[0],[0],[1.5790225000000646],['target'],3,001,2024-10-10_14h41.33.700,Visual search exp,2024.1.5,None,2024-10-10 14h41.55.527581 +0530,
155,0,155,0,271.35113139999976,,271.30199809999976,10,271.35113139999976,271.35113139999976,0.033484100000350736,272.3577654999999,273.1534864000005,[-0.025925925925925925],[-0.3388888888888889],[1],[0],[0],[1.8185383000000002],['target'],3,001,2024-10-10_14h41.33.700,Visual search exp,2024.1.5,None,2024-10-10 14h41.55.527581 +0530,
156,0,156,0,273.1864857999999,,273.1577527999998,5,273.1864857999999,273.1864857999999,0.01829239999915444,274.18877900000007,274.4732382000002,[0.24351851851851852],[-0.4425925925925926],[1],[0],[0],[1.2977498000000196],['target'],3,001,2024-10-10_14h41.33.700,Visual search exp,2024.1.5,None,2024-10-10 14h41.55.527581 +0530,
157,0,157,0,274.5289598999998,,274.47750240000005,10,274.5289598999998,274.5289598999998,0.03539519999958429,,275.3476976000002,[0.16296296296296298],[-0.44907407407407407],[1],[0],[0],[0.835351300000184],['target'],3,001,2024-10-10_14h41.33.700,Visual search exp,2024.1.5,None,2024-10-10 14h41.55.527581 +0530,
158,0,158,0,275.3810699000005,,275.3522244000005,5,275.3810699000005,275.3810699000005,0.01812340000014956,276.38227259999985,277.0994751999997,[-0.3],[-0.45185185185185184],[1],[0],[0],[1.7297427000003154],['target'],3,001,2024-10-10_14h41.33.700,Visual search exp,2024.1.5,None,2024-10-10 14h41.55.527581 +0530,
159,0,159,0,277.1329231999998,,277.10383230000025,5,277.1329231999998,277.1329231999998,0.01786770000035176,278.13414339999963,278.8353739000004,[-0.2962962962962963],[0.4546296296296296],[1],[0],[0],[1.7141007999998692],['target'],3,001,2024-10-10_14h41.33.700,Visual search exp,2024.1.5,None,2024-10-10 14h41.55.527581 +0530,
160,0,160,0,278.89036450000003,,278.8397814,10,278.89036450000003,278.89036450000003,0.035712900000362424,279.90437569999995,282.5290623000001,[0.4425925925925926],[0.14074074074074075],[1],[0],[0],[3.6541601000008086],['target'],3,001,2024-10-10_14h41.33.700,Visual search exp,2024.1.5,None,2024-10-10 14h41.55.527581 +0530,
161,0,161,0,282.5624625999999,,282.53345979999995,5,282.5624625999999,282.5624625999999,0.018103200000041397,283.56364959999974,283.61520050000036,[0.23333333333333334],[0.06759259259259259],[1],[0],[0],[1.0641024999995352],['target'],3,001,2024-10-10_14h41.33.700,Visual search exp,2024.1.5,None,2024-10-10 14h41.55.527581 +0530,
162,0,162,0,283.6693685,,283.6198761000005,10,283.6693685,283.6693685,0.03490160000001197,284.68152139999984,285.1559563999999,[-0.4324074074074074],[-0.32314814814814813],[1],[0],[0],[1.5017516999996587],['target'],3,001,2024-10-10_14h41.33.700,Visual search exp,2024.1.5,None,2024-10-10 14h41.55.527581 +0530,
163,0,163,0,285.2103480000005,,285.16017740000007,10,285.2103480000005,285.2103480000005,0.035376199999518576,286.22397490000003,286.5804527,[-0.09722222222222222],[0.04351851851851852],[1],[0],[0],[1.3854523999998491],['target'],3,001,2024-10-10_14h41.33.700,Visual search exp,2024.1.5,None,2024-10-10 14h41.55.527581 +0530,
164,0,164,0,286.6142026999996,,286.5851302000001,5,286.6142026999996,286.6142026999996,0.01841740000054415,287.61504950000017,288.1994987999997,[-0.4074074074074074],[0.08796296296296297],[1],[0],[0],[1.5964845999997124],['target'],3,001,2024-10-10_14h41.33.700,Visual search exp,2024.1.5,None,2024-10-10 14h41.55.527581 +0530,
165,0,165,0,288.2558484000001,,288.2039327000002,10,288.2558484000001,288.2558484000001,0.0368797999999515,289.2630742000001,290.6378329999998,[0.41944444444444445],[-0.021296296296296296],[1],[0],[0],[2.3975282000001243],['target'],3,001,2024-10-10_14h41.33.700,Visual search exp,2024.1.5,None,2024-10-10 14h41.55.527581 +0530,
166,0,166,0,290.6923004,,290.64581480000015,5,290.6923004,290.6923004,0.03245409999999538,291.7022216000005,292.0708770000001,[-0.5101851851851852],[0.18333333333333332],[1],[0],[0],[1.3937237000000096],['target'],3,001,2024-10-10_14h41.33.700,Visual search exp,2024.1.5,None,2024-10-10 14h41.55.527581 +0530,
167,0,167,0,292.10365850000017,,292.0752857999996,5,292.10365850000017,292.10365850000017,0.017750099999830127,293.10519569999997,294.63996190000034,[0.4601851851851852],[-0.43333333333333335],[1],[0],[0],[2.5475046000001385],['target'],3,001,2024-10-10_14h41.33.700,Visual search exp,2024.1.5,None,2024-10-10 14h41.55.527581 +0530,
168,0,168,0,294.7002699000004,,294.6467438999998,10,294.7002699000004,294.7002699000004,0.03872059999957855,295.70309030000044,300.0927216,[-0.18611111111111112],[0.4527777777777778],[1],[0],[0],[5.408495599999696],['target'],3,001,2024-10-10_14h41.33.700,Visual search exp,2024.1.5,None,2024-10-10 14h41.55.527581 +0530,
169,0,169,0,300.1496812000005,,300.09749439999996,10,300.1496812000005,300.1496812000005,0.036323499999525666,301.1491756000005,301.4502567999998,[-0.15185185185185185],[-0.08518518518518518],[1],[0],[0],[1.3171351000000868],['target'],3,001,2024-10-10_14h41.33.700,Visual search exp,2024.1.5,None,2024-10-10 14h41.55.527581 +0530,
170,0,170,0,301.4825909000001,,301.4545823999997,5,301.4825909000001,301.4825909000001,0.017564499999934924,302.48434,302.9190700999998,[0.1574074074074074],[0.09722222222222222],[1],[0],[0],[1.4475005000003875],['target'],3,001,2024-10-10_14h41.33.700,Visual search exp,2024.1.5,None,2024-10-10 14h41.55.527581 +0530,
171,0,171,0,302.9519522999999,,302.9232966999998,5,302.9519522999999,302.9519522999999,0.01764569999977539,303.95377970000027,304.70584830000007,[0.11203703703703703],[0.37962962962962965],[1],[0],[0],[1.7654484000004231],['target'],3,001,2024-10-10_14h41.33.700,Visual search exp,2024.1.5,None,2024-10-10 14h41.55.527581 +0530,
172,0,172,0,304.7611890999997,,304.71018360000016,10,304.7611890999997,304.7611890999997,0.03513000000020838,305.7716438999996,308.64297540000007,[-0.20462962962962963],[-0.23796296296296296],[1],[0],[0],[3.8982146999996985],['target'],3,001,2024-10-10_14h41.33.700,Visual search exp,2024.1.5,None,2024-10-10 14h41.55.527581 +0530,
173,0,173,0,308.6768866000002,,308.6477857,5,308.6768866000002,308.6768866000002,0.018556799999714713,309.67850720000024,309.83243909999965,[-0.3138888888888889],[0.09351851851851851],[1],[0],[0],[1.1665992000007464],['target'],3,001,2024-10-10_14h41.33.700,Visual search exp,2024.1.5,None,2024-10-10 14h41.55.527581 +0530,
174,0,174,0,309.8920823999997,,309.8370728,10,309.8920823999997,309.8920823999997,0.0381628000004639,310.90276600000016,311.38803800000005,[-0.3490740740740741],[-0.2712962962962963],[1],[0],[0],[1.513336099999833],['target'],3,001,2024-10-10_14h41.33.700,Visual search exp,2024.1.5,None,2024-10-10 14h41.55.527581 +0530,
175,0,175,0,311.4243239999996,,311.3923407000002,5,311.4243239999996,311.4243239999996,0.020078699999430683,312.43934360000003,313.1903852000005,[-0.38425925925925924],[-0.05462962962962963],[1],[0],[0],[1.7784113999996407],['target'],3,001,2024-10-10_14h41.33.700,Visual search exp,2024.1.5,None,2024-10-10 14h41.55.527581 +0530,
176,0,176,0,313.24519580000015,,313.19471580000027,10,313.24519580000015,313.24519580000015,0.03405459999976301,314.25104699999974,315.38016700000026,[0.4046296296296296],[0.19074074074074074],[1],[0],[0],[2.151984799999809],['target'],3,001,2024-10-10_14h41.33.700,Visual search exp,2024.1.5,None,2024-10-10 14h41.55.527581 +0530,
177,0,177,0,315.41448630000014,,315.3846738000002,5,315.41448630000014,315.41448630000014,0.018584699999337317,316.4147751999999,317.9820195000002,[-0.44907407407407407],[0.04722222222222222],[1],[0],[0],[2.579183699999703],['target'],3,001,2024-10-10_14h41.33.700,Visual search exp,2024.1.5,None,2024-10-10 14h41.55.527581 +0530,
178,0,178,0,318.03907439999966,,317.98676049999995,10,318.03907439999966,318.03907439999966,0.036575600000105624,319.0543588999999,321.1939027999997,[-0.45740740740740743],[0.3398148148148148],[1],[0],[0],[3.171190199999728],['target'],3,001,2024-10-10_14h41.33.700,Visual search exp,2024.1.5,None,2024-10-10 14h41.55.527581 +0530,
179,0,179,0,321.2494065000001,,321.1982877999999,10,321.2494065000001,321.2494065000001,0.03499809999993886,322.25006610000037,322.51164020000033,[-0.37592592592592594],[-0.362962962962963],[1],[0],[0],[1.2788880999996763],['target'],3,001,2024-10-10_14h41.33.700,Visual search exp,2024.1.5,None,2024-10-10 14h41.55.527581 +0530,
180,0,180,0,322.5671843,,322.5159789999998,10,322.5671843,322.5671843,0.03647949999958655,,323.51848320000045,[-0.3296296296296296],[-0.1925925925925926],[1],[0],[0],[0.9665139000007912],['target'],3,001,2024-10-10_14h41.33.700,Visual search exp,2024.1.5,None,2024-10-10 14h41.55.527581 +0530,
181,0,181,0,323.5523469,,323.5231924999998,5,323.5523469,323.5523469,0.01765490000070713,324.5939252999997,324.5390677000005,[-0.4111111111111111],[0.09907407407407408],[1],[0],[0],[0.9987839999994321],['target'],3,001,2024-10-10_14h41.33.700,Visual search exp,2024.1.5,None,2024-10-10 14h41.55.527581 +0530,
182,0,182,0,324.5939252999997,,324.54342129999986,10,324.5939252999997,324.5939252999997,0.03554710000025807,325.59998449999966,325.86278820000007,[-0.04259259259259259],[0.22592592592592592],[1],[0],[0],[1.2843352999998388],['target'],3,001,2024-10-10_14h41.33.700,Visual search exp,2024.1.5,None,2024-10-10 14h41.55.527581 +0530,
183,0,183,0,325.91771750000044,,325.8670744000001,10,325.91771750000044,325.91771750000044,0.03524500000003172,326.9265739000002,327.32018440000047,[0.412962962962963],[-0.36944444444444446],[1],[0],[0],[1.4183916000001773],['target'],3,001,2024-10-10_14h41.33.700,Visual search exp,2024.1.5,None,2024-10-10 14h41.55.527581 +0530,
184,0,184,0,327.3867186999996,,327.3274237000005,10,327.3867186999996,327.3867186999996,0.04409970000051544,328.3917078000004,328.73224050000044,[-0.3907407407407407],[-0.31203703703703706],[1],[0],[0],[1.3618904000004477],['target'],3,001,2024-10-10_14h41.33.700,Visual search exp,2024.1.5,None,2024-10-10 14h41.55.527581 +0530,
185,0,185,0,328.76483029999963,,328.73652909999964,5,328.76483029999963,328.76483029999963,0.017625699999371136,329.7767265000002,329.92842089999976,[0.06851851851851852],[0.2898148148148148],[1],[0],[0],[1.1747135000005073],['target'],3,001,2024-10-10_14h41.33.700,Visual search exp,2024.1.5,None,2024-10-10 14h41.55.527581 +0530,
186,0,186,0,329.9615620000004,,329.9330448999999,5,329.9615620000004,329.9615620000004,0.017683500000202912,330.96294409999973,330.9815663999998,[0.2722222222222222],[0.39351851851851855],[1],[0],[0],[1.0314595999998346],['target'],3,001,2024-10-10_14h41.33.700,Visual search exp,2024.1.5,None,2024-10-10 14h41.55.527581 +0530,
187,0,187,0,331.03611770000043,,330.9864156000003,10,331.03611770000043,331.03611770000043,0.034971399999449204,332.04540030000044,332.5226468999999,[0.25833333333333336],[-0.4064814814814815],[1],[0],[0],[1.5020206999997754],['target'],3,001,2024-10-10_14h41.33.700,Visual search exp,2024.1.5,None,2024-10-10 14h41.55.527581 +0530,
188,0,188,0,332.5774590000001,,332.5269172999997,10,332.5774590000001,332.5774590000001,0.035790300000371644,333.57599910000044,334.23300089999975,[-0.34814814814814815],[-0.18796296296296297],[1],[0],[0],[1.670828100000108],['target'],3,001,2024-10-10_14h41.33.700,Visual search exp,2024.1.5,None,2024-10-10 14h41.55.527581 +0530,
189,0,189,0,334.2661407000005,,334.2373484,5,334.2661407000005,334.2661407000005,0.01771459999963554,,335.2024204999998,[-0.15462962962962962],[-0.2935185185185185],[1],[0],[0],[0.9477742999997645],['target'],3,001,2024-10-10_14h41.33.700,Visual search exp,2024.1.5,None,2024-10-10 14h41.55.527581 +0530,
190,0,190,0,335.2613239000002,,335.20674229999986,10,335.2613239000002,335.2613239000002,0.03776620000007824,,336.0082078000005,[-0.20833333333333334],[-0.29444444444444445],[1],[0],[0],[0.7642703999999867],['target'],3,001,2024-10-10_14h41.33.700,Visual search exp,2024.1.5,None,2024-10-10 14h41.55.527581 +0530,
191,0,191,0,336.0415533000005,,336.0127196000003,5,336.0415533000005,336.0415533000005,0.018521299999520124,337.0432619000003,337.57713049999984,[0.4861111111111111],[0.2],[1],[0],[0],[1.546539699999812],['target'],3,001,2024-10-10_14h41.33.700,Visual search exp,2024.1.5,None,2024-10-10 14h41.55.527581 +0530,
192,0,192,0,337.61319509999976,,337.58150620000015,5,337.61319509999976,337.61319509999976,0.01985140000033425,338.6130959000002,341.2641945000005,[0.3333333333333333],[-0.044444444444444446],[1],[0],[0],[3.6633123000001433],['target'],3,001,2024-10-10_14h41.33.700,Visual search exp,2024.1.5,None,2024-10-10 14h41.55.527581 +0530,
193,0,193,0,341.2974628000002,,341.26847389999966,5,341.2974628000002,341.2974628000002,0.018452999999681197,342.2990286000004,345.1985104000005,[-0.43333333333333335],[0.037037037037037035],[1],[0],[0],[3.912129900000764],[],3,001,2024-10-10_14h41.33.700,Visual search exp,2024.1.5,None,2024-10-10 14h41.55.527581 +0530,
194,0,194,0,345.2554984999997,,345.2031033000003,10,345.2554984999997,345.2554984999997,0.035174499999811815,346.2669536000003,347.2393781999999,[0.2175925925925926],[0.018518518518518517],[1],[0],[0],[2.0016630000000077],['target'],3,001,2024-10-10_14h41.33.700,Visual search exp,2024.1.5,None,2024-10-10 14h41.55.527581 +0530,
195,0,195,0,347.27461330000006,,347.24434290000045,5,347.27461330000006,347.27461330000006,0.018641399999978603,348.2746139000001,349.92515189999995,[-0.4981481481481482],[0.41388888888888886],[1],[0],[0],[2.6627893000004406],['target'],3,001,2024-10-10_14h41.33.700,Visual search exp,2024.1.5,None,2024-10-10 14h41.55.527581 +0530,
196,0,196,0,349.9583461000002,,349.9298711000001,5,349.9583461000002,349.9583461000002,0.017898000000059255,350.96100320000005,351.59540149999975,[0.4703703703703704],[0.03148148148148148],[1],[0],[0],[1.648096599999917],['target'],3,001,2024-10-10_14h41.33.700,Visual search exp,2024.1.5,None,2024-10-10 14h41.55.527581 +0530,
197,0,197,0,351.6705228999999,,351.6035410000004,10,351.6705228999999,351.6705228999999,0.05245830000058049,352.6802810999998,353.35064450000027,[-0.4324074074074074],[-0.4398148148148148],[1],[0],[0],[1.6959907000000385],['target'],3,001,2024-10-10_14h41.33.700,Visual search exp,2024.1.5,None,2024-10-10 14h41.55.527581 +0530,
198,0,198,0,353.38404340000034,,353.35547680000036,5,353.38404340000034,353.38404340000034,0.01821829999971669,354.3858562000005,354.9698451000004,[-0.31296296296296294],[0.4638888888888889],[1],[0],[0],[1.59685300000001],['target'],3,001,2024-10-10_14h41.33.700,Visual search exp,2024.1.5,None,2024-10-10 14h41.55.527581 +0530,
199,0,199,0,355.00256809999973,,354.97418130000005,5,355.00256809999973,355.00256809999973,0.018275599999469705,356.0040380999999,356.2222548999998,[-0.4740740740740741],[0.42685185185185187],[1],[0],[0],[1.230385799999567],['target'],3,001,2024-10-10_14h41.33.700,Visual search exp,2024.1.5,None,2024-10-10 14h41.55.527581 +0530,
