trials.thisRepN,trials.thisTrialN,trials.thisN,trials.thisIndex,thisRow.t,notes,trial.started,num_distr,fixation.started,target.started,mouse.started,fixation.stopped,trial.stopped,mouse.x,mouse.y,mouse.leftButton,mouse.midButton,mouse.rightButton,mouse.time,mouse.clicked_name,participant,session,date,expName,psychopyVersion,frameRate,expStart,
0,0,0,0,0.08351119999952061,,0.011419299999943178,10,0.08351119999952061,0.08351119999952061,0.06516540000029636,1.0826709000002666,4.566941699999916,[-0.35462962962962963],[-0.3537037037037037],[1],[0],[0],[4.500851499999953],['target'],4,001,2024-10-10_15h19.42.268,Visual search exp,2024.1.5,None,2024-10-10 15h19.55.350684 +0530,
1,0,1,0,4.651105099999768,,4.577144099999714,10,4.651105099999768,4.651105099999768,0.059575999999651685,5.651217999999972,5.916953099999773,[0.3101851851851852],[0.03981481481481482],[1],[0],[0],[1.2814312000000427],['target'],4,001,2024-10-10_15h19.42.268,Visual search exp,2024.1.5,None,2024-10-10 15h19.55.350684 +0530,
2,0,2,0,5.971839900000305,,5.921722899999622,10,5.971839900000305,5.971839900000305,0.03537780000078783,6.977556900000309,9.85778979999941,[-0.2175925925925926],[0.4444444444444444],[1],[0],[0],[3.901328199999625],['target'],4,001,2024-10-10_15h19.42.268,Visual search exp,2024.1.5,None,2024-10-10 15h19.55.350684 +0530,
3,0,3,0,9.888457099999869,,9.862013199999637,5,9.888457099999869,9.888457099999869,0.01724610000019311,10.890635799999473,12.191261099999792,[-0.3861111111111111],[-0.2574074074074074],[1],[0],[0],[2.3124723999999333],['target'],4,001,2024-10-10_15h19.42.268,Visual search exp,2024.1.5,None,2024-10-10 15h19.55.350684 +0530,
4,0,4,0,12.24391839999953,,12.195661699999619,10,12.24391839999953,12.24391839999953,0.03427350000038132,13.24607339999966,13.99611779999941,[0.08888888888888889],[-0.23333333333333334],[1],[0],[0],[1.766747700000451],['target'],4,001,2024-10-10_15h19.42.268,Visual search exp,2024.1.5,None,2024-10-10 15h19.55.350684 +0530,
5,0,5,0,14.052501199999824,,14.000387999999475,10,14.052501199999824,14.052501199999824,0.03500689999964379,15.053558099999464,15.305080799999814,[0.004629629629629629],[0.13055555555555556],[1],[0],[0],[1.2702668000001722],['target'],4,001,2024-10-10_15h19.42.268,Visual search exp,2024.1.5,None,2024-10-10 15h19.55.350684 +0530,
6,0,6,0,15.356434100000115,,15.309367500000008,10,15.356434100000115,15.356434100000115,0.033329800000501564,16.358969199999592,16.943356499999936,[-0.2962962962962963],[-0.16203703703703703],[1],[0],[0],[1.601232500000151],['target'],4,001,2024-10-10_15h19.42.268,Visual search exp,2024.1.5,None,2024-10-10 15h19.55.350684 +0530,
7,0,7,0,16.974785299999894,,16.947603399999934,5,16.974785299999894,16.974785299999894,0.017146400000456197,17.97656349999943,19.010956299999634,[-0.3888888888888889],[-0.4083333333333333],[1],[0],[0],[2.0467007999995985],['target'],4,001,2024-10-10_15h19.42.268,Visual search exp,2024.1.5,None,2024-10-10 15h19.55.350684 +0530,
8,0,8,0,19.043416399999842,,19.015552199999547,5,19.043416399999842,19.043416399999842,0.016857900000104564,20.046282899999824,21.11351949999971,[-0.35],[0.4685185185185185],[1],[0],[0],[2.0816240000003745],['target'],4,001,2024-10-10_15h19.42.268,Visual search exp,2024.1.5,None,2024-10-10 15h19.55.350684 +0530,
9,0,9,0,21.182532199999514,,21.120841400000245,10,21.182532199999514,21.182532199999514,0.04287139999996725,22.19786430000022,23.454875999999786,[0.49722222222222223],[0.011111111111111112],[1],[0],[0],[2.292418799999723],['target'],4,001,2024-10-10_15h19.42.268,Visual search exp,2024.1.5,None,2024-10-10 15h19.55.350684 +0530,
10,0,10,0,23.491205199999968,,23.459870699999556,5,23.491205199999968,23.491205199999968,0.019850700000461075,24.506145000000288,25.354109299999436,[0.32407407407407407],[0.3148148148148148],[1],[0],[0],[1.874974000000293],['target'],4,001,2024-10-10_15h19.42.268,Visual search exp,2024.1.5,None,2024-10-10 15h19.55.350684 +0530,
11,0,11,0,25.40512099999978,,25.358375400000114,10,25.40512099999978,25.40512099999978,0.0326946000004682,26.40771820000009,28.44042360000003,[0.44722222222222224],[0.2324074074074074],[1],[0],[0],[3.0499083999993672],['target'],4,001,2024-10-10_15h19.42.268,Visual search exp,2024.1.5,None,2024-10-10 15h19.55.350684 +0530,
12,0,12,0,28.49429439999949,,28.444678699999713,10,28.49429439999949,28.49429439999949,0.03483129999949597,29.49672180000016,30.264439099999436,[0.30925925925925923],[0.24722222222222223],[1],[0],[0],[1.7854803999998694],['target'],4,001,2024-10-10_15h19.42.268,Visual search exp,2024.1.5,None,2024-10-10 15h19.55.350684 +0530,
13,0,13,0,30.295466499999748,,30.268739899999673,5,30.295466499999748,30.295466499999748,0.01688179999928252,31.29831959999956,31.932527899999513,[-0.25925925925925924],[-0.4527777777777778],[1],[0],[0],[1.6474497999997766],['target'],4,001,2024-10-10_15h19.42.268,Visual search exp,2024.1.5,None,2024-10-10 15h19.55.350684 +0530,
14,0,14,0,31.964988900000208,,31.936747099999593,5,31.964988900000208,31.964988900000208,0.01717110000026878,32.96671830000014,33.7509313999999,[-0.030555555555555555],[-0.3472222222222222],[1],[0],[0],[1.7975532000000385],['target'],4,001,2024-10-10_15h19.42.268,Visual search exp,2024.1.5,None,2024-10-10 15h19.55.350684 +0530,
15,0,15,0,33.78196609999941,,33.75552040000002,5,33.78196609999941,33.78196609999941,0.017069799999262614,34.78385109999999,37.18378029999985,[0.03425925925925926],[0.49722222222222223],[1],[0],[0],[3.411644400000114],['target'],4,001,2024-10-10_15h19.42.268,Visual search exp,2024.1.5,None,2024-10-10 15h19.55.350684 +0530,
16,0,16,0,37.21914779999952,,37.18803659999958,5,37.21914779999952,37.21914779999952,0.018757499999992433,38.21850610000001,38.95289279999997,[-0.325],[0.15925925925925927],[1],[0],[0],[1.7466850000000704],['target'],4,001,2024-10-10_15h19.42.268,Visual search exp,2024.1.5,None,2024-10-10 15h19.55.350684 +0530,
17,0,17,0,38.98409989999982,,38.95714450000014,5,38.98409989999982,38.98409989999982,0.017114899999796762,39.985908599999675,40.90304409999953,[-0.13796296296296295],[-0.30277777777777776],[1],[0],[0],[1.9293676999996023],['target'],4,001,2024-10-10_15h19.42.268,Visual search exp,2024.1.5,None,2024-10-10 15h19.55.350684 +0530,
18,0,18,0,40.95483580000018,,40.907665499999894,10,40.95483580000018,40.95483580000018,0.03292620000047464,41.95737399999962,42.791239600000154,[-0.4388888888888889],[-0.011111111111111112],[1],[0],[0],[1.8512446000004275],['target'],4,001,2024-10-10_15h19.42.268,Visual search exp,2024.1.5,None,2024-10-10 15h19.55.350684 +0530,
19,0,19,0,42.846853299999566,,42.795965799999976,10,42.846853299999566,42.846853299999566,0.03373269999974582,43.847645799999555,46.26799109999956,[-0.40555555555555556],[-0.44814814814814813],[1],[0],[0],[3.4388835999998264],['target'],4,001,2024-10-10_15h19.42.268,Visual search exp,2024.1.5,None,2024-10-10 15h19.55.350684 +0530,
20,0,20,0,46.30004009999993,,46.272252099999605,5,46.30004009999993,46.30004009999993,0.017286300000705523,47.302613400000155,48.73643269999957,[-0.11296296296296296],[0.006481481481481481],[1],[0],[0],[2.447346899999502],['target'],4,001,2024-10-10_15h19.42.268,Visual search exp,2024.1.5,None,2024-10-10 15h19.55.350684 +0530,
21,0,21,0,48.78995289999966,,48.74095599999964,10,48.78995289999966,48.78995289999966,0.03461140000035812,49.792057300000124,50.9115112999998,[-0.22962962962962963],[0.3074074074074074],[1],[0],[0],[2.1363320999998905],[],4,001,2024-10-10_15h19.42.268,Visual search exp,2024.1.5,None,2024-10-10 15h19.55.350684 +0530,
22,0,22,0,50.947068800000125,,50.91618599999947,5,50.947068800000125,50.947068800000125,0.01753279999957158,51.96247229999972,53.11334119999992,[-0.4925925925925926],[-0.42777777777777776],[1],[0],[0],[2.1802189],['target'],4,001,2024-10-10_15h19.42.268,Visual search exp,2024.1.5,None,2024-10-10 15h19.55.350684 +0530,
23,0,23,0,53.152152800000295,,53.11740229999941,5,53.152152800000295,53.152152800000295,0.020735600000080012,54.16509849999966,54.5830047999998,[0.08981481481481482],[-0.2814814814814815],[1],[0],[0],[1.4453389000000243],['target'],4,001,2024-10-10_15h19.42.268,Visual search exp,2024.1.5,None,2024-10-10 15h19.55.350684 +0530,
24,0,24,0,54.6180188999997,,54.587727999999515,5,54.6180188999997,54.6180188999997,0.018162999999731255,55.61731630000031,56.75233810000009,[0.14629629629629629],[0.2962962962962963],[1],[0],[0],[2.147143500000311],['target'],4,001,2024-10-10_15h19.42.268,Visual search exp,2024.1.5,None,2024-10-10 15h19.55.350684 +0530,
25,0,25,0,56.78029409999999,,56.75619110000025,5,56.78029409999999,56.78029409999999,0.013780599999336118,57.78112510000028,58.01731689999997,[0.46111111111111114],[0.21203703703703702],[1],[0],[0],[1.2476532000000589],['target'],4,001,2024-10-10_15h19.42.268,Visual search exp,2024.1.5,None,2024-10-10 15h19.55.350684 +0530,
26,0,26,0,58.04867180000019,,58.02064729999984,5,58.04867180000019,58.04867180000019,0.01576070000010077,59.051290999999765,60.73488139999972,[0.3398148148148148],[-0.4287037037037037],[1],[0],[0],[2.6987181000004057],['target'],4,001,2024-10-10_15h19.42.268,Visual search exp,2024.1.5,None,2024-10-10 15h19.55.350684 +0530,
27,0,27,0,60.7912854999995,,60.73955010000009,10,60.7912854999995,60.7912854999995,0.036155100000542006,61.80551569999989,63.089434399999845,[0.1787037037037037],[0.31203703703703706],[1],[0],[0],[2.3143503000001147],['target'],4,001,2024-10-10_15h19.42.268,Visual search exp,2024.1.5,None,2024-10-10 15h19.55.350684 +0530,
28,0,28,0,63.129670799999985,,63.09364099999948,5,63.129670799999985,63.129670799999985,0.021587100000033388,64.13168489999953,64.7829227000002,[-0.3],[0.20555555555555555],[1],[0],[0],[1.668580500000644],['target'],4,001,2024-10-10_15h19.42.268,Visual search exp,2024.1.5,None,2024-10-10 15h19.55.350684 +0530,
29,0,29,0,64.82818719999977,,64.7862011999996,10,64.82818719999977,64.82818719999977,0.027551900000617024,65.83643699999993,67.3677717999999,[-0.36203703703703705],[-0.412962962962963],[1],[0],[0],[2.5544328000005407],['target'],4,001,2024-10-10_15h19.42.268,Visual search exp,2024.1.5,None,2024-10-10 15h19.55.350684 +0530,
30,0,30,0,67.39530550000018,,67.37128680000023,5,67.39530550000018,67.39530550000018,0.013657600000442471,68.3993330000003,69.84889589999966,[-0.45740740740740743],[0.38796296296296295],[1],[0],[0],[2.464344600000004],['target'],4,001,2024-10-10_15h19.42.268,Visual search exp,2024.1.5,None,2024-10-10 15h19.55.350684 +0530,
31,0,31,0,69.87605879999956,,69.85199529999954,5,69.87605879999956,69.87605879999956,0.013549400000556489,70.88031090000004,72.26349389999996,[0.3287037037037037],[-0.28425925925925927],[1],[0],[0],[2.3982146999996985],['target'],4,001,2024-10-10_15h19.42.268,Visual search exp,2024.1.5,None,2024-10-10 15h19.55.350684 +0530,
32,0,32,0,72.30967820000023,,72.26718660000006,10,72.30967820000023,72.30967820000023,0.028264100000342296,73.31545399999959,77.19812099999945,[-0.2175925925925926],[0.4962962962962963],[1],[0],[0],[4.90277739999965],['target'],4,001,2024-10-10_15h19.42.268,Visual search exp,2024.1.5,None,2024-10-10 15h19.55.350684 +0530,
33,0,33,0,77.24459599999955,,77.20134229999985,10,77.24459599999955,77.24459599999955,0.02851490000011836,78.2513315999995,79.2500700999999,[-0.29259259259259257],[0.07407407407407407],[1],[0],[0],[2.0206130999995366],['target'],4,001,2024-10-10_15h19.42.268,Visual search exp,2024.1.5,None,2024-10-10 15h19.55.350684 +0530,
34,0,34,0,79.27887869999995,,79.25335749999977,5,79.27887869999995,79.27887869999995,0.014954799999941315,80.28112950000013,81.03174579999995,[0.28425925925925927],[0.26851851851851855],[1],[0],[0],[1.7637212999998155],['target'],4,001,2024-10-10_15h19.42.268,Visual search exp,2024.1.5,None,2024-10-10 15h19.55.350684 +0530,
35,0,35,0,81.08029299999998,,81.03699239999969,10,81.08029299999998,81.08029299999998,0.02896950000013021,82.08381589999954,84.82128999999986,[0.04351851851851852],[0.4740740740740741],[1],[0],[0],[3.755878400000256],['target'],4,001,2024-10-10_15h19.42.268,Visual search exp,2024.1.5,None,2024-10-10 15h19.55.350684 +0530,
36,0,36,0,84.85770159999993,,84.8259081999995,5,84.85770159999993,84.85770159999993,0.019416699999965203,85.8723829999999,86.8582236000002,[0.33611111111111114],[-0.06388888888888888],[1],[0],[0],[2.0135283999998137],['target'],4,001,2024-10-10_15h19.42.268,Visual search exp,2024.1.5,None,2024-10-10 15h19.55.350684 +0530,
37,0,37,0,86.89173409999967,,86.86172119999992,5,86.89173409999967,86.89173409999967,0.017607099999622733,87.89184639999985,88.05964459999996,[0.09444444444444444],[0.24722222222222223],[1],[0],[0],[1.1805556999997862],['target'],4,001,2024-10-10_15h19.42.268,Visual search exp,2024.1.5,None,2024-10-10 15h19.55.350684 +0530,
38,0,38,0,88.10669179999968,,88.06343649999963,10,88.10669179999968,88.10669179999968,0.028180499999507447,89.11175399999956,89.19473909999942,[0.41388888888888886],[0.34074074074074073],[1],[0],[0],[1.1034546999999293],['target'],4,001,2024-10-10_15h19.42.268,Visual search exp,2024.1.5,None,2024-10-10 15h19.55.350684 +0530,
39,0,39,0,89.23155390000011,,89.19731589999992,10,89.23155390000011,89.23155390000011,0.02169640000010986,90.24572549999993,90.81504339999992,[-0.2518518518518518],[0.3638888888888889],[1],[0],[0],[1.5960555000001477],['target'],4,001,2024-10-10_15h19.42.268,Visual search exp,2024.1.5,None,2024-10-10 15h19.55.350684 +0530,
40,0,40,0,90.86960129999989,,90.81966740000007,10,90.86960129999989,90.86960129999989,0.03441269999984797,91.8672961000002,93.60714839999946,[-0.08611111111111111],[0.06111111111111111],[1],[0],[0],[2.7536324000002423],['target'],4,001,2024-10-10_15h19.42.268,Visual search exp,2024.1.5,None,2024-10-10 15h19.55.350684 +0530,
41,0,41,0,93.67124820000026,,93.61165410000012,10,93.67124820000026,93.67124820000026,0.039975499999854947,94.67962770000031,95.5816635000001,[0.4638888888888889],[0.06759259259259259],[1],[0],[0],[1.9305587999997442],['target'],4,001,2024-10-10_15h19.42.268,Visual search exp,2024.1.5,None,2024-10-10 15h19.55.350684 +0530,
42,0,42,0,95.61366029999954,,95.58595729999979,5,95.61366029999954,95.61366029999954,0.017685400000118534,96.6152688000002,98.29922139999962,[-0.48703703703703705],[0.20925925925925926],[1],[0],[0],[2.6959867000005033],['target'],4,001,2024-10-10_15h19.42.268,Visual search exp,2024.1.5,None,2024-10-10 15h19.55.350684 +0530,
43,0,43,0,98.35159049999947,,98.3067688000001,5,98.35159049999947,98.35159049999947,0.0288100999996459,99.35354449999977,99.90602119999949,[0.4546296296296296],[0.2712962962962963],[1],[0],[0],[1.571567199999663],['target'],4,001,2024-10-10_15h19.42.268,Visual search exp,2024.1.5,None,2024-10-10 15h19.55.350684 +0530,
44,0,44,0,99.9703727999995,,99.91355639999983,10,99.9703727999995,99.9703727999995,0.042482400000153575,100.9780353999995,102.3817670999997,[-0.019444444444444445],[-0.18703703703703703],[1],[0],[0],[2.4269955999998274],['target'],4,001,2024-10-10_15h19.42.268,Visual search exp,2024.1.5,None,2024-10-10 15h19.55.350684 +0530,
45,0,45,0,102.43747780000012,,102.38606720000007,10,102.43747780000012,102.43747780000012,0.03694130000076257,103.45087929999954,105.9833023000001,[-0.12685185185185185],[0.29907407407407405],[1],[0],[0],[3.5608689999999115],['target'],4,001,2024-10-10_15h19.42.268,Visual search exp,2024.1.5,None,2024-10-10 15h19.55.350684 +0530,
46,0,46,0,106.01845580000008,,105.9879664,5,106.01845580000008,106.01845580000008,0.017674499999884574,107.01858709999942,108.02004810000017,[0.08796296296296297],[-0.1638888888888889],[1],[0],[0],[2.014981899999839],['target'],4,001,2024-10-10_15h19.42.268,Visual search exp,2024.1.5,None,2024-10-10 15h19.55.350684 +0530,
47,0,47,0,108.05359810000027,,108.02425159999984,5,108.05359810000027,108.05359810000027,0.01942220000000816,109.05450089999977,110.58971380000003,[-0.4740740740740741],[-0.06666666666666667],[1],[0],[0],[2.5463938999992024],['target'],4,001,2024-10-10_15h19.42.268,Visual search exp,2024.1.5,None,2024-10-10 15h19.55.350684 +0530,
48,0,48,0,110.6415780999996,,110.59714079999958,5,110.6415780999996,110.6415780999996,0.029299599999831116,111.64400719999958,112.9779939,[0.25092592592592594],[0.2935185185185185],[1],[0],[0],[2.3528583999996044],['target'],4,001,2024-10-10_15h19.42.268,Visual search exp,2024.1.5,None,2024-10-10 15h19.55.350684 +0530,
49,0,49,0,113.03114389999973,,112.98221920000015,10,113.03114389999973,113.03114389999973,0.03272870000000694,114.03383339999982,116.08386309999969,[0.26481481481481484],[-0.34444444444444444],[1],[0],[0],[3.0694551999995383],['target'],4,001,2024-10-10_15h19.42.268,Visual search exp,2024.1.5,None,2024-10-10 15h19.55.350684 +0530,
50,0,50,0,116.11570209999991,,116.08817350000027,5,116.11570209999991,116.11570209999991,0.017589099999895552,117.11807679999947,117.90288150000015,[0.33796296296296297],[-0.4185185185185185],[1],[0],[0],[1.7976643000001786],['target'],4,001,2024-10-10_15h19.42.268,Visual search exp,2024.1.5,None,2024-10-10 15h19.55.350684 +0530,
51,0,51,0,117.93562589999965,,117.90754130000005,5,117.93562589999965,117.93562589999965,0.016931900000599853,118.93751499999962,119.83839139999964,[-0.28425925925925927],[0.05740740740740741],[1],[0],[0],[1.9144155999993018],['target'],4,001,2024-10-10_15h19.42.268,Visual search exp,2024.1.5,None,2024-10-10 15h19.55.350684 +0530,
52,0,52,0,119.89100959999996,,119.84261129999959,10,119.89100959999996,119.89100959999996,0.03451810000024125,120.89453270000013,122.16067310000017,[-0.06944444444444445],[-0.0962962962962963],[1],[0],[0],[2.2840822999996817],['target'],4,001,2024-10-10_15h19.42.268,Visual search exp,2024.1.5,None,2024-10-10 15h19.55.350684 +0530,
53,0,53,0,122.21264479999991,,122.16491419999966,10,122.21264479999991,122.21264479999991,0.032825100000081875,123.21523439999964,126.21486259999983,[-0.4027777777777778],[-0.4759259259259259],[1],[0],[0],[4.017696099999739],['target'],4,001,2024-10-10_15h19.42.268,Visual search exp,2024.1.5,None,2024-10-10 15h19.55.350684 +0530,
54,0,54,0,126.26547279999977,,126.21918939999978,10,126.26547279999977,126.26547279999977,0.03212699999949109,127.27070409999942,127.6248241000003,[0.3731481481481482],[0.4203703703703704],[1],[0],[0],[1.3740397000001394],['target'],4,001,2024-10-10_15h19.42.268,Visual search exp,2024.1.5,None,2024-10-10 15h19.55.350684 +0530,
55,0,55,0,127.69520099999954,,127.6319381000003,10,127.69520099999954,127.69520099999954,0.045442300000104296,128.70506269999987,130.03629569999976,[-0.12222222222222222],[-0.03425925925925926],[1],[0],[0],[2.360110800000257],['target'],4,001,2024-10-10_15h19.42.268,Visual search exp,2024.1.5,None,2024-10-10 15h19.55.350684 +0530,
56,0,56,0,130.0721483999996,,130.0411011999995,5,130.0721483999996,130.0721483999996,0.01934620000065479,131.08744039999965,132.4885304999998,[0.10092592592592593],[-0.4685185185185185],[1],[0],[0],[2.4286368000002767],['target'],4,001,2024-10-10_15h19.42.268,Visual search exp,2024.1.5,None,2024-10-10 15h19.55.350684 +0530,
57,0,57,0,132.52120430000014,,132.4931177999997,5,132.52120430000014,132.52120430000014,0.016838300000017625,133.52301410000018,134.49056370000017,[0.4666666666666667],[0.017592592592592594],[1],[0],[0],[1.9811912999994092],['target'],4,001,2024-10-10_15h19.42.268,Visual search exp,2024.1.5,None,2024-10-10 15h19.55.350684 +0530,
58,0,58,0,134.5435735000001,,134.49479650000012,10,134.5435735000001,134.5435735000001,0.03257839999969292,135.54599319999943,137.6960637000002,[-0.3824074074074074],[-0.25925925925925924],[1],[0],[0],[3.1691927999991094],['target'],4,001,2024-10-10_15h19.42.268,Visual search exp,2024.1.5,None,2024-10-10 15h19.55.350684 +0530,
59,0,59,0,137.7524088,,137.70193409999956,10,137.7524088,137.7524088,0.03641680000055203,138.75181520000024,141.71661779999977,[0.010185185185185186],[-0.42407407407407405],[1],[0],[0],[3.9788008000004993],['target'],4,001,2024-10-10_15h19.42.268,Visual search exp,2024.1.5,None,2024-10-10 15h19.55.350684 +0530,
60,0,60,0,141.75249770000028,,141.7212873999997,5,141.75249770000028,141.75249770000028,0.01978400000007241,142.76735709999957,143.75156779999998,[0.2712962962962963],[-0.47685185185185186],[1],[0],[0],[2.011262500000157],['target'],4,001,2024-10-10_15h19.42.268,Visual search exp,2024.1.5,None,2024-10-10 15h19.55.350684 +0530,
61,0,61,0,143.78649750000022,,143.7559666999996,5,143.78649750000022,143.78649750000022,0.019277999999758322,144.78640819999964,145.65584260000014,[-0.3685185185185185],[-0.1527777777777778],[1],[0],[0],[1.8811961000001247],['target'],4,001,2024-10-10_15h19.42.268,Visual search exp,2024.1.5,None,2024-10-10 15h19.55.350684 +0530,
62,0,62,0,145.7135988,,145.6610353999995,10,145.7135988,145.7135988,0.036466399999881105,146.73910449999948,148.0467792999998,[0.2972222222222222],[0.32592592592592595],[1],[0],[0],[2.3497240999995483],['target'],4,001,2024-10-10_15h19.42.268,Visual search exp,2024.1.5,None,2024-10-10 15h19.55.350684 +0530,
63,0,63,0,148.09263929999997,,148.05120699999952,5,148.09263929999997,148.09263929999997,0.025225899999895773,149.09692279999945,151.22389320000002,[-0.08981481481481482],[0.49537037037037035],[1],[0],[0],[3.147766899999624],['target'],4,001,2024-10-10_15h19.42.268,Visual search exp,2024.1.5,None,2024-10-10 15h19.55.350684 +0530,
64,0,64,0,151.32855909999944,,151.23111319999953,10,151.32855909999944,151.32855909999944,0.06716929999947752,152.34112339999956,153.0162051999996,[-0.13148148148148148],[-0.33240740740740743],[1],[0],[0],[1.7192544999998063],['target'],4,001,2024-10-10_15h19.42.268,Visual search exp,2024.1.5,None,2024-10-10 15h19.55.350684 +0530,
65,0,65,0,153.08376510000016,,153.02012579999973,10,153.08376510000016,153.08376510000016,0.041614199999457924,154.09324229999947,156.69620579999992,[-0.26666666666666666],[-0.41574074074074074],[1],[0],[0],[3.634971399999813],['target'],4,001,2024-10-10_15h19.42.268,Visual search exp,2024.1.5,None,2024-10-10 15h19.55.350684 +0530,
66,0,66,0,156.7438715999997,,156.69950289999997,10,156.7438715999997,156.7438715999997,0.02886639999996987,157.74536509999962,160.77880060000007,[0.30833333333333335],[0.04814814814814815],[1],[0],[0],[4.050704299999779],['target'],4,001,2024-10-10_15h19.42.268,Visual search exp,2024.1.5,None,2024-10-10 15h19.55.350684 +0530,
67,0,67,0,160.83568109999942,,160.78588779999973,10,160.83568109999942,160.83568109999942,0.0352045999998154,161.85029359999953,163.68404800000008,[0.3907407407407407],[0.11018518518518519],[1],[0],[0],[2.8641603999994913],['target'],4,001,2024-10-10_15h19.42.268,Visual search exp,2024.1.5,None,2024-10-10 15h19.55.350684 +0530,
68,0,68,0,163.71407939999972,,163.68833369999993,5,163.71407939999972,163.71407939999972,0.01648060000024998,164.71612099999948,167.1160934999998,[-0.019444444444444445],[-0.43148148148148147],[1],[0],[0],[3.4117559999995137],['target'],4,001,2024-10-10_15h19.42.268,Visual search exp,2024.1.5,None,2024-10-10 15h19.55.350684 +0530,
69,0,69,0,167.14801220000027,,167.12066200000027,5,167.14801220000027,167.14801220000027,0.017098000000260072,168.15754449999986,169.25350530000014,[-0.03888888888888889],[0.18333333333333332],[1],[0],[0],[2.116246399999909],['target'],4,001,2024-10-10_15h19.42.268,Visual search exp,2024.1.5,None,2024-10-10 15h19.55.350684 +0530,
70,0,70,0,169.30455230000007,,169.25828290000027,10,169.30455230000007,169.30455230000007,0.032084999999824504,170.30661119999968,171.3908894999995,[0.39537037037037037],[0.0824074074074074],[1],[0],[0],[2.100931899999523],['target'],4,001,2024-10-10_15h19.42.268,Visual search exp,2024.1.5,None,2024-10-10 15h19.55.350684 +0530,
71,0,71,0,171.4218321999997,,171.39549979999993,5,171.4218321999997,171.4218321999997,0.01708059999964462,172.42392519999976,172.77540390000013,[0.037037037037037035],[-0.10648148148148148],[1],[0],[0],[1.3633442999998806],['target'],4,001,2024-10-10_15h19.42.268,Visual search exp,2024.1.5,None,2024-10-10 15h19.55.350684 +0530,
72,0,72,0,172.82631130000027,,172.77965249999943,10,172.82631130000027,172.82631130000027,0.032779000000118685,173.82869740000024,175.54463849999956,[-0.3472222222222222],[0.21944444444444444],[1],[0],[0],[2.732685599999968],['target'],4,001,2024-10-10_15h19.42.268,Visual search exp,2024.1.5,None,2024-10-10 15h19.55.350684 +0530,
73,0,73,0,175.61504259999947,,175.5488766999997,10,175.61504259999947,175.61504259999947,0.04322059999958583,176.61985409999943,179.3350247999997,[0.24259259259259258],[-0.04537037037037037],[1],[0],[0],[3.743465899999137],['target'],4,001,2024-10-10_15h19.42.268,Visual search exp,2024.1.5,None,2024-10-10 15h19.55.350684 +0530,
74,0,74,0,179.39009569999962,,179.33974859999944,10,179.39009569999962,179.39009569999962,0.034608599999955914,180.3985431000001,180.59967940000024,[0.31851851851851853],[0.08888888888888889],[1],[0],[0],[1.225854999999683],['target'],4,001,2024-10-10_15h19.42.268,Visual search exp,2024.1.5,None,2024-10-10 15h19.55.350684 +0530,
75,0,75,0,180.6509103999997,,180.60392520000005,10,180.6509103999997,180.6509103999997,0.03302419999999984,181.6534032999998,182.35454039999968,[-0.44166666666666665],[-0.020370370370370372],[1],[0],[0],[1.7181652000008398],['target'],4,001,2024-10-10_15h19.42.268,Visual search exp,2024.1.5,None,2024-10-10 15h19.55.350684 +0530,
76,0,76,0,182.3860949,,182.35874539999986,5,182.3860949,182.3860949,0.016974199999822304,183.38853169999948,185.17239999999947,[0.007407407407407408],[0.42407407407407405],[1],[0],[0],[2.797062499999811],['target'],4,001,2024-10-10_15h19.42.268,Visual search exp,2024.1.5,None,2024-10-10 15h19.55.350684 +0530,
77,0,77,0,185.22260430000006,,185.17692569999963,10,185.22260430000006,185.22260430000006,0.031868000000031316,186.22501649999958,189.12408909999976,[-0.39351851851851855],[-0.4703703703703704],[1],[0],[0],[3.9158903999996255],['target'],4,001,2024-10-10_15h19.42.268,Visual search exp,2024.1.5,None,2024-10-10 15h19.55.350684 +0530,
78,0,78,0,189.15561960000014,,189.12890739999966,5,189.15561960000014,189.15561960000014,0.01694039999983943,190.15817330000027,190.79272330000003,[-0.175],[0.030555555555555555],[1],[0],[0],[1.6474226999998791],['target'],4,001,2024-10-10_15h19.42.268,Visual search exp,2024.1.5,None,2024-10-10 15h19.55.350684 +0530,
79,0,79,0,190.8243182999995,,190.79694109999946,5,190.8243182999995,190.8243182999995,0.017377400000441412,191.82682159999968,192.34550750000017,[-0.18518518518518517],[0.03518518518518519],[1],[0],[0],[1.5316972999999052],['target'],4,001,2024-10-10_15h19.42.268,Visual search exp,2024.1.5,None,2024-10-10 15h19.55.350684 +0530,
80,0,80,0,192.40553519999958,,192.35256260000006,10,192.40553519999958,192.40553519999958,0.035880399999769,193.41168229999948,194.27908939999998,[0.1638888888888889],[0.3768518518518518],[1],[0],[0],[1.8918421999997008],['target'],4,001,2024-10-10_15h19.42.268,Visual search exp,2024.1.5,None,2024-10-10 15h19.55.350684 +0530,
81,0,81,0,194.33020789999955,,194.2837012,10,194.33020789999955,194.33020789999955,0.03208360000007815,195.3323631000003,197.4995025999997,[0.012037037037037037],[-0.09351851851851851],[1],[0],[0],[3.1842225999998846],['target'],4,001,2024-10-10_15h19.42.268,Visual search exp,2024.1.5,None,2024-10-10 15h19.55.350684 +0530,
82,0,82,0,197.53207199999997,,197.50372659999994,5,197.53207199999997,197.53207199999997,0.017487400000391062,198.53438989999995,199.05275809999966,[0.375],[0.3824074074074074],[1],[0],[0],[1.5320937999995294],['target'],4,001,2024-10-10_15h19.42.268,Visual search exp,2024.1.5,None,2024-10-10 15h19.55.350684 +0530,
83,0,83,0,199.08446819999972,,199.05703639999956,5,199.08446819999972,199.08446819999972,0.017512299999907555,200.0869090999995,200.2892154000001,[0.26296296296296295],[-0.10092592592592593],[1],[0],[0],[1.2150572000000466],['target'],4,001,2024-10-10_15h19.42.268,Visual search exp,2024.1.5,None,2024-10-10 15h19.55.350684 +0530,
84,0,84,0,200.3222741999998,,200.29341250000016,5,200.3222741999998,200.3222741999998,0.017676399999800196,201.32364619999953,202.22528880000027,[-0.3907407407407407],[0.30185185185185187],[1],[0],[0],[1.9146657000001142],['target'],4,001,2024-10-10_15h19.42.268,Visual search exp,2024.1.5,None,2024-10-10 15h19.55.350684 +0530,
85,0,85,0,202.27664970000023,,202.22950739999942,10,202.27664970000023,202.27664970000023,0.0320465000004333,203.2845096000001,203.91553879999992,[-0.375],[-0.17037037037037037],[1],[0],[0],[1.6544585999999981],['target'],4,001,2024-10-10_15h19.42.268,Visual search exp,2024.1.5,None,2024-10-10 15h19.55.350684 +0530,
86,0,86,0,203.96632189999946,,203.91983309999978,10,203.96632189999946,203.96632189999946,0.032331299999896146,204.96389660000023,206.34506950000014,[0.30092592592592593],[-0.48333333333333334],[1],[0],[0],[2.393543599999248],['target'],4,001,2024-10-10_15h19.42.268,Visual search exp,2024.1.5,None,2024-10-10 15h19.55.350684 +0530,
87,0,87,0,206.39564859999973,,206.34974859999966,10,206.39564859999973,206.39564859999973,0.0321020999999746,207.39857049999955,212.50890900000013,[0.46574074074074073],[0.4925925925925926],[1],[0],[0],[6.12748719999945],['target'],4,001,2024-10-10_15h19.42.268,Visual search exp,2024.1.5,None,2024-10-10 15h19.55.350684 +0530,
88,0,88,0,212.55960109999978,,212.5131709999996,10,212.55960109999978,212.55960109999978,0.03252169999996113,213.5629560999996,213.94790920000014,[0.362962962962963],[0.24722222222222223],[1],[0],[0],[1.4026223000000755],['target'],4,001,2024-10-10_15h19.42.268,Visual search exp,2024.1.5,None,2024-10-10 15h19.55.350684 +0530,
89,0,89,0,213.97903760000008,,213.9524867,5,213.97903760000008,213.97903760000008,0.016702200000509038,214.9818390999999,215.58335960000022,[-0.16203703703703703],[-0.2074074074074074],[1],[0],[0],[1.614724699999897],['target'],4,001,2024-10-10_15h19.42.268,Visual search exp,2024.1.5,None,2024-10-10 15h19.55.350684 +0530,
90,0,90,0,215.61511229999996,,215.5876030999998,5,215.61511229999996,215.61511229999996,0.0175160999997388,216.6173431999996,217.10202049999953,[-0.44814814814814813],[-0.37222222222222223],[1],[0],[0],[1.4973733000006177],['target'],4,001,2024-10-10_15h19.42.268,Visual search exp,2024.1.5,None,2024-10-10 15h19.55.350684 +0530,
91,0,91,0,217.15305100000023,,217.10624670000016,10,217.15305100000023,217.15305100000023,0.032729500000641565,218.15741509999953,218.8682659999995,[0.3611111111111111],[0.07222222222222222],[1],[0],[0],[1.729849400000603],['target'],4,001,2024-10-10_15h19.42.268,Visual search exp,2024.1.5,None,2024-10-10 15h19.55.350684 +0530,
92,0,92,0,218.90010230000007,,218.87304200000017,5,218.90010230000007,218.90010230000007,0.017216999999618565,219.90207420000024,220.68662159999985,[-0.32037037037037036],[0.31574074074074077],[1],[0],[0],[1.7969111000002158],['target'],4,001,2024-10-10_15h19.42.268,Visual search exp,2024.1.5,None,2024-10-10 15h19.55.350684 +0530,
93,0,93,0,220.71754059999967,,220.69088159999956,5,220.71754059999967,220.71754059999967,0.016917500000090513,221.71942059999947,223.5538547999995,[0.3648148148148148],[0.0962962962962963],[1],[0],[0],[2.846564700000272],['target'],4,001,2024-10-10_15h19.42.268,Visual search exp,2024.1.5,None,2024-10-10 15h19.55.350684 +0530,
94,0,94,0,223.59163089999947,,223.5609072999996,5,223.59163089999947,223.59163089999947,0.020331200000327954,224.60468779999974,225.7899456999994,[-0.2564814814814815],[-0.2388888888888889],[1],[0],[0],[2.2097050000002127],['target'],4,001,2024-10-10_15h19.42.268,Visual search exp,2024.1.5,None,2024-10-10 15h19.55.350684 +0530,
95,0,95,0,225.87081949999993,,225.7981718000001,10,225.87081949999993,225.87081949999993,0.05934809999962454,226.8821353000003,228.61590549999983,[-0.16111111111111112],[0.05555555555555555],[1],[0],[0],[2.7596677000001364],['target'],4,001,2024-10-10_15h19.42.268,Visual search exp,2024.1.5,None,2024-10-10 15h19.55.350684 +0530,
96,0,96,0,228.67101249999996,,228.62020589999975,10,228.67101249999996,228.67101249999996,0.03540980000070704,229.6715336999996,229.83994689999963,[0.11944444444444445],[-0.0712962962962963],[1],[0],[0],[1.1849590000001626],['target'],4,001,2024-10-10_15h19.42.268,Visual search exp,2024.1.5,None,2024-10-10 15h19.55.350684 +0530,
97,0,97,0,229.88957000000028,,229.84419209999942,10,229.88957000000028,229.88957000000028,0.03157379999993282,230.89169669999956,231.27689180000016,[0.062037037037037036],[0.09351851851851851],[1],[0],[0],[1.401520100000198],['target'],4,001,2024-10-10_15h19.42.268,Visual search exp,2024.1.5,None,2024-10-10 15h19.55.350684 +0530,
98,0,98,0,231.3275552999994,,231.28120820000004,10,231.3275552999994,231.3275552999994,0.03230659999917407,232.33037460000014,232.8650545999999,[-0.15833333333333333],[-0.0824074074074074],[1],[0],[0],[1.5519763000002058],['target'],4,001,2024-10-10_15h19.42.268,Visual search exp,2024.1.5,None,2024-10-10 15h19.55.350684 +0530,
99,0,99,0,232.91491580000002,,232.86935530000028,10,232.91491580000002,232.91491580000002,0.0319006999998237,233.9185897999996,237.69933579999997,[0.3527777777777778],[-0.40555555555555556],[1],[0],[0],[4.798642099999597],['target'],4,001,2024-10-10_15h19.42.268,Visual search exp,2024.1.5,None,2024-10-10 15h19.55.350684 +0530,
100,0,100,0,237.75171369999953,,237.70409670000026,10,237.75171369999953,237.75171369999953,0.03370970000014495,238.75409479999962,239.95477049999954,[-0.14166666666666666],[0.1824074074074074],[1],[0],[0],[2.21753869999975],['target'],4,001,2024-10-10_15h19.42.268,Visual search exp,2024.1.5,None,2024-10-10 15h19.55.350684 +0530,
101,0,101,0,240.00798909999958,,239.9590075999995,10,240.00798909999958,240.00798909999958,0.03520089999983611,241.01846639999985,241.81986719999986,[-0.4064814814814815],[0.12407407407407407],[1],[0],[0],[1.8262002999999822],['target'],4,001,2024-10-10_15h19.42.268,Visual search exp,2024.1.5,None,2024-10-10 15h19.55.350684 +0530,
102,0,102,0,241.87195220000012,,241.82409349999944,10,241.87195220000012,241.87195220000012,0.033239899999898626,242.8746801999996,243.44456439999976,[0.275],[0.3537037037037037],[1],[0],[0],[1.587297000000035],['target'],4,001,2024-10-10_15h19.42.268,Visual search exp,2024.1.5,None,2024-10-10 15h19.55.350684 +0530,
103,0,103,0,243.50431579999986,,243.45252299999993,10,243.50431579999986,243.50431579999986,0.03526289999990695,244.51228470000024,246.1298072999998,[-0.3037037037037037],[0.14629629629629629],[1],[0],[0],[2.642514299999675],['target'],4,001,2024-10-10_15h19.42.268,Visual search exp,2024.1.5,None,2024-10-10 15h19.55.350684 +0530,
104,0,104,0,246.18167819999962,,246.13428449999992,10,246.18167819999962,246.18167819999962,0.03188560000035068,247.18413549999968,248.4849153999994,[0.17314814814814813],[-0.22037037037037038],[1],[0],[0],[2.3193098000001555],['target'],4,001,2024-10-10_15h19.42.268,Visual search exp,2024.1.5,None,2024-10-10 15h19.55.350684 +0530,
105,0,105,0,248.53630410000005,,248.48918609999964,10,248.53630410000005,248.53630410000005,0.032987300000058895,249.5393224999998,249.67407699999967,[0.3175925925925926],[0.06018518518518518],[1],[0],[0],[1.1524720999996134],['target'],4,001,2024-10-10_15h19.42.268,Visual search exp,2024.1.5,None,2024-10-10 15h19.55.350684 +0530,
106,0,106,0,249.72760000000017,,249.6783078999997,10,249.72760000000017,249.72760000000017,0.0339880000001358,250.72911750000003,250.93062370000007,[0.1962962962962963],[-0.1111111111111111],[1],[0],[0],[1.2188819000002695],['target'],4,001,2024-10-10_15h19.42.268,Visual search exp,2024.1.5,None,2024-10-10 15h19.55.350684 +0530,
107,0,107,0,250.9667088999995,,250.93641089999983,5,250.9667088999995,250.9667088999995,0.020256800000424846,251.9660845999997,252.90076899999985,[-0.35833333333333334],[0.3592592592592593],[1],[0],[0],[1.944987100000617],['target'],4,001,2024-10-10_15h19.42.268,Visual search exp,2024.1.5,None,2024-10-10 15h19.55.350684 +0530,
108,0,108,0,252.9507069000001,,252.90494080000008,10,252.9507069000001,252.9507069000001,0.0318371000003026,253.95316170000024,255.20346169999993,[0.42407407407407405],[0.4935185185185185],[1],[0],[0],[2.267251500000384],['target'],4,001,2024-10-10_15h19.42.268,Visual search exp,2024.1.5,None,2024-10-10 15h19.55.350684 +0530,
109,0,109,0,255.23552980000022,,255.2077178999998,5,255.23552980000022,255.23552980000022,0.017058800000086194,256.23832070000026,258.35455060000004,[0.4351851851851852],[-0.32685185185185184],[1],[0],[0],[3.1302566000003935],['target'],4,001,2024-10-10_15h19.42.268,Visual search exp,2024.1.5,None,2024-10-10 15h19.55.350684 +0530,
110,0,110,0,258.4052264000002,,258.35876370000005,10,258.4052264000002,258.4052264000002,0.032261299999845505,259.4079812,260.24279190000016,[0.34629629629629627],[-0.09907407407407408],[1],[0],[0],[1.8523642999998629],['target'],4,001,2024-10-10_15h19.42.268,Visual search exp,2024.1.5,None,2024-10-10 15h19.55.350684 +0530,
111,0,111,0,260.2939015000002,,260.24705110000014,10,260.2939015000002,260.2939015000002,0.03256379999947967,261.29654179999943,262.1977657999996,[-0.07592592592592592],[-0.18703703703703703],[1],[0],[0],[1.9187120999995386],['target'],4,001,2024-10-10_15h19.42.268,Visual search exp,2024.1.5,None,2024-10-10 15h19.55.350684 +0530,
112,0,112,0,262.22876970000016,,262.20199049999974,5,262.22876970000016,262.22876970000016,0.016812500000014552,263.2312804000003,264.9652710999999,[0.375],[0.19074074074074074],[1],[0],[0],[2.746944700000313],['target'],4,001,2024-10-10_15h19.42.268,Visual search exp,2024.1.5,None,2024-10-10 15h19.55.350684 +0530,
113,0,113,0,264.9969437,,264.9702846,5,264.9969437,264.9969437,0.017123399999945832,265.99933859999965,268.28305230000024,[-0.27314814814814814],[0.4648148148148148],[1],[0],[0],[3.296388000000661],['target'],4,001,2024-10-10_15h19.42.268,Visual search exp,2024.1.5,None,2024-10-10 15h19.55.350684 +0530,
114,0,114,0,268.31391429999985,,268.2876390000001,5,268.31391429999985,268.31391429999985,0.01652379999995901,269.3163985000001,271.26620529999946,[-0.14629629629629629],[-0.24444444444444444],[1],[0],[0],[2.9625230000001466],['target'],4,001,2024-10-10_15h19.42.268,Visual search exp,2024.1.5,None,2024-10-10 15h19.55.350684 +0530,
115,0,115,0,271.31922870000017,,271.27040599999964,10,271.31922870000017,271.31922870000017,0.034116099999664584,272.3214418999996,272.65634299999965,[0.1638888888888889],[-0.21666666666666667],[1],[0],[0],[1.3523528000005172],['target'],4,001,2024-10-10_15h19.42.268,Visual search exp,2024.1.5,None,2024-10-10 15h19.55.350684 +0530,
116,0,116,0,272.6884159000001,,272.6609596999997,5,272.6884159000001,272.6884159000001,0.01739590000033786,273.6910466999998,274.7086661000003,[0.03333333333333333],[-0.08796296296296297],[1],[0],[0],[2.030841199999486],['target'],4,001,2024-10-10_15h19.42.268,Visual search exp,2024.1.5,None,2024-10-10 15h19.55.350684 +0530,
117,0,117,0,274.7394972000002,,274.7131829,5,274.7394972000002,274.7394972000002,0.01650530000006256,275.74195319999944,276.6258275,[-0.10740740740740741],[-0.46574074074074073],[1],[0],[0],[1.8966927000001306],['target'],4,001,2024-10-10_15h19.42.268,Visual search exp,2024.1.5,None,2024-10-10 15h19.55.350684 +0530,
118,0,118,0,276.6779532999999,,276.6300140000003,10,276.6779532999999,276.6779532999999,0.031850099999246595,277.68045059999986,278.74770530000023,[-0.3037037037037037],[0.0],[1],[0],[0],[2.0864049000001614],['target'],4,001,2024-10-10_15h19.42.268,Visual search exp,2024.1.5,None,2024-10-10 15h19.55.350684 +0530,
119,0,119,0,278.7839978000002,,278.75267519999943,5,278.7839978000002,278.7839978000002,0.02083519999996497,279.7836271999995,280.9683892000003,[0.08796296296296297],[0.35555555555555557],[1],[0],[0],[2.195312699999704],['target'],4,001,2024-10-10_15h19.42.268,Visual search exp,2024.1.5,None,2024-10-10 15h19.55.350684 +0530,
120,0,120,0,281.0187143000003,,280.9758396999996,5,281.0187143000003,281.0187143000003,0.028676899999481975,282.0210425999994,283.53856970000015,[-0.5120370370370371],[0.022222222222222223],[1],[0],[0],[2.5353187999999136],['target'],4,001,2024-10-10_15h19.42.268,Visual search exp,2024.1.5,None,2024-10-10 15h19.55.350684 +0530,
121,0,121,0,283.58868280000024,,283.54314559999966,10,283.58868280000024,283.58868280000024,0.03182060000017373,284.59200770000007,285.49180499999966,[-0.31203703703703706],[0.325],[1],[0],[0],[1.9173618000004353],['target'],4,001,2024-10-10_15h19.42.268,Visual search exp,2024.1.5,None,2024-10-10 15h19.55.350684 +0530,
122,0,122,0,285.5433376000001,,285.49644290000015,10,285.5433376000001,285.5433376000001,0.032143799999175826,286.5462434000001,287.6047368999998,[-0.4898148148148148],[-0.22592592592592592],[1],[0],[0],[2.0767054000007192],['target'],4,001,2024-10-10_15h19.42.268,Visual search exp,2024.1.5,None,2024-10-10 15h19.55.350684 +0530,
123,0,123,0,287.6385832999995,,287.6091405999996,5,287.6385832999995,287.6385832999995,0.018027900000561203,288.6483723000001,289.7493208999995,[-0.14722222222222223],[0.1037037037037037],[1],[0],[0],[2.1227262000002156],['target'],4,001,2024-10-10_15h19.42.268,Visual search exp,2024.1.5,None,2024-10-10 15h19.55.350684 +0530,
124,0,124,0,289.8011056999994,,289.7538816999995,10,289.8011056999994,289.8011056999994,0.033304499999758264,290.8038596999995,292.2553926999999,[-0.34444444444444444],[-0.1824074074074074],[1],[0],[0],[2.4686217999997098],['target'],4,001,2024-10-10_15h19.42.268,Visual search exp,2024.1.5,None,2024-10-10 15h19.55.350684 +0530,
125,0,125,0,292.2875237999997,,292.2599736000002,5,292.2875237999997,292.2875237999997,0.017216799999914656,293.28946670000005,294.490401,[-0.44074074074074077],[0.3638888888888889],[1],[0],[0],[2.2136457000005976],['target'],4,001,2024-10-10_15h19.42.268,Visual search exp,2024.1.5,None,2024-10-10 15h19.55.350684 +0530,
126,0,126,0,294.5221714999998,,294.4947798000003,5,294.5221714999998,294.5221714999998,0.017207900000357768,295.52462659999946,296.24262,[-0.24259259259259258],[0.04814814814814815],[1],[0],[0],[1.731147499999679],['target'],4,001,2024-10-10_15h19.42.268,Visual search exp,2024.1.5,None,2024-10-10 15h19.55.350684 +0530,
127,0,127,0,296.2733804999998,,296.2469245000002,5,296.2733804999998,296.2733804999998,0.01649859999997716,297.27988300000015,297.99863769999956,[-0.21203703703703702],[-0.25277777777777777],[1],[0],[0],[1.7355274999999892],['target'],4,001,2024-10-10_15h19.42.268,Visual search exp,2024.1.5,None,2024-10-10 15h19.55.350684 +0530,
128,0,128,0,298.0620355000001,,298.0060813,10,298.0620355000001,298.0620355000001,0.042626499999641965,299.0705571999997,300.08837369999947,[-0.21481481481481482],[-0.4027777777777778],[1],[0],[0],[2.040869399999792],['target'],4,001,2024-10-10_15h19.42.268,Visual search exp,2024.1.5,None,2024-10-10 15h19.55.350684 +0530,
129,0,129,0,300.11957189999976,,300.09269549999954,5,300.11957189999976,300.11957189999976,0.01690969999981462,301.12193130000014,302.2562449999996,[-0.30462962962962964],[0.29259259259259257],[1],[0],[0],[2.147064499999942],['target'],4,001,2024-10-10_15h19.42.268,Visual search exp,2024.1.5,None,2024-10-10 15h19.55.350684 +0530,
130,0,130,0,302.28806110000005,,302.2608057999996,5,302.28806110000005,302.28806110000005,0.017235899999832327,303.2910641999997,304.0583792999996,[0.4583333333333333],[0.35833333333333334],[1],[0],[0],[1.7808882999997877],['target'],4,001,2024-10-10_15h19.42.268,Visual search exp,2024.1.5,None,2024-10-10 15h19.55.350684 +0530,
131,0,131,0,304.09053219999987,,304.0627005999995,5,304.09053219999987,304.09053219999987,0.01723669999955746,305.0931620000001,308.0589259999997,[0.4675925925925926],[-0.3194444444444444],[1],[0],[0],[3.979247000000214],['target'],4,001,2024-10-10_15h19.42.268,Visual search exp,2024.1.5,None,2024-10-10 15h19.55.350684 +0530,
132,0,132,0,308.11227489999965,,308.06673109999974,5,308.11227489999965,308.11227489999965,0.028929400000379246,309.11453079999956,309.91597360000014,[0.23425925925925925],[-0.06388888888888888],[1],[0],[0],[1.8214116999997714],['target'],4,001,2024-10-10_15h19.42.268,Visual search exp,2024.1.5,None,2024-10-10 15h19.55.350684 +0530,
133,0,133,0,309.94674099999975,,309.92039380000006,5,309.94674099999975,309.94674099999975,0.016570999999203195,310.94917710000027,311.63393350000024,[0.45555555555555555],[0.412962962962963],[1],[0],[0],[1.6975030000003244],['target'],4,001,2024-10-10_15h19.42.268,Visual search exp,2024.1.5,None,2024-10-10 15h19.55.350684 +0530,
134,0,134,0,311.6841076999999,,311.63811069999974,10,311.6841076999999,311.6841076999999,0.031855700000051,312.68647090000013,313.8539230999995,[0.4888888888888889],[-0.07314814814814814],[1],[0],[0],[2.184363399999711],['target'],4,001,2024-10-10_15h19.42.268,Visual search exp,2024.1.5,None,2024-10-10 15h19.55.350684 +0530,
135,0,135,0,313.88521630000014,,313.85852840000007,5,313.88521630000014,313.88521630000014,0.016866699999809498,314.88780320000023,316.3883071,[0.2657407407407407],[-0.2222222222222222],[1],[0],[0],[2.5134319999997388],['target'],4,001,2024-10-10_15h19.42.268,Visual search exp,2024.1.5,None,2024-10-10 15h19.55.350684 +0530,
136,0,136,0,316.4187554,,316.3924936000003,5,316.4187554,316.4187554,0.01637659999960306,317.4214495999995,318.82205559999966,[0.004629629629629629],[-0.20185185185185187],[1],[0],[0],[2.4137252000000444],['target'],4,001,2024-10-10_15h19.42.268,Visual search exp,2024.1.5,None,2024-10-10 15h19.55.350684 +0530,
137,0,137,0,318.85264180000013,,318.8262986999998,5,318.85264180000013,318.85264180000013,0.016445000000203436,319.85532689999945,320.9603667000001,[0.44907407407407407],[-0.05740740740740741],[1],[0],[0],[2.118051800000103],['target'],4,001,2024-10-10_15h19.42.268,Visual search exp,2024.1.5,None,2024-10-10 15h19.55.350684 +0530,
138,0,138,0,320.99479989999963,,320.9672068,5,320.99479989999963,320.99479989999963,0.017463900000620924,322.00763730000017,323.1418587999997,[-0.31296296296296294],[0.012962962962962963],[1],[0],[0],[2.1578526000002967],['target'],4,001,2024-10-10_15h19.42.268,Visual search exp,2024.1.5,None,2024-10-10 15h19.55.350684 +0530,
139,0,139,0,323.17286259999946,,323.14649180000015,5,323.17286259999946,323.17286259999946,0.01637140000002546,324.1755174,324.7095650000001,[-0.07037037037037037],[-0.030555555555555555],[1],[0],[0],[1.5472829999998794],['target'],4,001,2024-10-10_15h19.42.268,Visual search exp,2024.1.5,None,2024-10-10 15h19.55.350684 +0530,
140,0,140,0,324.7412316,,324.71413649999977,5,324.7412316,324.7412316,0.016614000000117812,325.7434304999997,326.5625983,[0.462037037037037],[0.49166666666666664],[1],[0],[0],[1.8321585000003324],['target'],4,001,2024-10-10_15h19.42.268,Visual search exp,2024.1.5,None,2024-10-10 15h19.55.350684 +0530,
141,0,141,0,326.6385037,,326.5708593999998,10,326.6385037,326.6385037,0.05377479999970092,327.6380430999998,328.22211960000004,[0.3925925925925926],[0.002777777777777778],[1],[0],[0],[1.598804199999904],['target'],4,001,2024-10-10_15h19.42.268,Visual search exp,2024.1.5,None,2024-10-10 15h19.55.350684 +0530,
142,0,142,0,328.25344099999984,,328.22632729999987,5,328.25344099999984,328.25344099999984,0.016871699999683187,329.2553504999996,329.3906815,[0.48148148148148145],[0.17222222222222222],[1],[0],[0],[1.1479290000006586],['target'],4,001,2024-10-10_15h19.42.268,Visual search exp,2024.1.5,None,2024-10-10 15h19.55.350684 +0530,
143,0,143,0,329.4222411999999,,329.3952386000001,5,329.4222411999999,329.4222411999999,0.017213799999808543,330.4246941000001,332.1915356999998,[0.1925925925925926],[-0.30833333333333335],[1],[0],[0],[2.7796206000002712],['target'],4,001,2024-10-10_15h19.42.268,Visual search exp,2024.1.5,None,2024-10-10 15h19.55.350684 +0530,
144,0,144,0,332.22239119999995,,332.195788,5,332.22239119999995,332.22239119999995,0.01673190000019531,333.2250727999999,334.1418894999997,[0.06388888888888888],[0.1925925925925926],[1],[0],[0],[1.9299906999995073],['target'],4,001,2024-10-10_15h19.42.268,Visual search exp,2024.1.5,None,2024-10-10 15h19.55.350684 +0530,
145,0,145,0,334.18928510000023,,334.1461512999995,5,334.18928510000023,334.18928510000023,0.03110240000023623,335.1938061999999,336.0455713000001,[0.2722222222222222],[-0.3472222222222222],[1],[0],[0],[1.8688236999996661],['target'],4,001,2024-10-10_15h19.42.268,Visual search exp,2024.1.5,None,2024-10-10 15h19.55.350684 +0530,
146,0,146,0,336.07975290000013,,336.0511550000001,5,336.07975290000013,336.07975290000013,0.018420200000036857,337.0798367999996,337.76451,[0.14907407407407408],[0.31574074074074077],[1],[0],[0],[1.6958685999998124],['target'],4,001,2024-10-10_15h19.42.268,Visual search exp,2024.1.5,None,2024-10-10 15h19.55.350684 +0530,
147,0,147,0,337.79641379999975,,337.7687111999994,5,337.79641379999975,337.79641379999975,0.016749999999774445,338.79892310000014,339.2501166000002,[0.37592592592592594],[-0.16111111111111112],[1],[0],[0],[1.4652287999997498],['target'],4,001,2024-10-10_15h19.42.268,Visual search exp,2024.1.5,None,2024-10-10 15h19.55.350684 +0530,
148,0,148,0,339.3000634,,339.2542960999999,10,339.3000634,339.3000634,0.03149319999920408,340.30245319999995,342.63523970000006,[-0.4046296296296296],[0.17314814814814813],[1],[0],[0],[3.349919199999931],['target'],4,001,2024-10-10_15h19.42.268,Visual search exp,2024.1.5,None,2024-10-10 15h19.55.350684 +0530,
149,0,149,0,342.6669055000002,,342.6398829,5,342.6669055000002,342.6669055000002,0.017198999999891385,343.6693290000003,344.9869082999994,[-0.3824074074074074],[-0.4064814814814815],[1],[0],[0],[2.330411200000526],['target'],4,001,2024-10-10_15h19.42.268,Visual search exp,2024.1.5,None,2024-10-10 15h19.55.350684 +0530,
150,0,150,0,345.03942430000006,,344.99108759999945,10,345.03942430000006,345.03942430000006,0.033389100000022154,346.04321679999975,346.6438556000003,[0.30925925925925923],[-0.16296296296296298],[1],[0],[0],[1.6199245999996492],['target'],4,001,2024-10-10_15h19.42.268,Visual search exp,2024.1.5,None,2024-10-10 15h19.55.350684 +0530,
151,0,151,0,346.67624629999955,,346.6480819999997,5,346.67624629999955,346.67624629999955,0.01816910000070493,347.6780028000003,348.52933399999984,[0.21851851851851853],[-0.03888888888888889],[1],[0],[0],[1.8636121999998068],['target'],4,001,2024-10-10_15h19.42.268,Visual search exp,2024.1.5,None,2024-10-10 15h19.55.350684 +0530,
152,0,152,0,348.5808298000002,,348.53390709999985,10,348.5808298000002,348.5808298000002,0.03192080000007991,349.58267350000006,350.1337859999994,[0.21388888888888888],[-0.2722222222222222],[1],[0],[0],[1.5684301999999661],['target'],4,001,2024-10-10_15h19.42.268,Visual search exp,2024.1.5,None,2024-10-10 15h19.55.350684 +0530,
153,0,153,0,350.1900931,,350.1384406999996,10,350.1900931,350.1900931,0.03568100000029517,351.1903950999995,352.427009,[0.3824074074074074],[0.28888888888888886],[1],[0],[0],[2.253353699999934],['target'],4,001,2024-10-10_15h19.42.268,Visual search exp,2024.1.5,None,2024-10-10 15h19.55.350684 +0530,
154,0,154,0,352.4942275000003,,352.43429659999947,10,352.4942275000003,352.4942275000003,0.04667849999987084,353.496948,353.8794148999996,[-0.16018518518518518],[-0.041666666666666664],[1],[0],[0],[1.3997282000000268],['target'],4,001,2024-10-10_15h19.42.268,Visual search exp,2024.1.5,None,2024-10-10 15h19.55.350684 +0530,
155,0,155,0,353.91041399999995,,353.88363669999944,5,353.91041399999995,353.91041399999995,0.01654229999985546,354.9237825,355.92628700000023,[-0.4425925925925926],[-0.06574074074074074],[1],[0],[0],[2.026426999999785],['target'],4,001,2024-10-10_15h19.42.268,Visual search exp,2024.1.5,None,2024-10-10 15h19.55.350684 +0530,
156,0,156,0,355.9700958000003,,355.9346184999995,5,355.9700958000003,355.9700958000003,0.026399899999887566,356.9758025000001,358.01010339999993,[-0.3314814814814815],[0.41203703703703703],[1],[0],[0],[2.050313699999606],['target'],4,001,2024-10-10_15h19.42.268,Visual search exp,2024.1.5,None,2024-10-10 15h19.55.350684 +0530,
157,0,157,0,358.06136439999955,,358.01464829999986,10,358.06136439999955,358.06136439999955,0.03170090000003256,359.0640833999996,359.6154153999996,[0.026851851851851852],[0.08796296296296297],[1],[0],[0],[1.569471099999646],['target'],4,001,2024-10-10_15h19.42.268,Visual search exp,2024.1.5,None,2024-10-10 15h19.55.350684 +0530,
158,0,158,0,359.6473444000003,,359.6200434000002,5,359.6473444000003,359.6473444000003,0.01750460000039311,360.65016060000016,364.19865519999985,[-0.23703703703703705],[0.4962962962962963],[1],[0],[0],[4.561709499999779],['target'],4,001,2024-10-10_15h19.42.268,Visual search exp,2024.1.5,None,2024-10-10 15h19.55.350684 +0530,
159,0,159,0,364.2294695999999,,364.2028500999995,5,364.2294695999999,364.2294695999999,0.01644860000033077,365.2320149999996,365.56793930000003,[0.06111111111111111],[0.3277777777777778],[1],[0],[0],[1.348976400000538],['target'],4,001,2024-10-10_15h19.42.268,Visual search exp,2024.1.5,None,2024-10-10 15h19.55.350684 +0530,
160,0,160,0,365.64553819999946,,365.5754687999997,10,365.64553819999946,365.64553819999946,0.05330640000011044,366.6434528,367.4109142999996,[-0.375],[0.35833333333333334],[1],[0],[0],[1.7832557000001543],['target'],4,001,2024-10-10_15h19.42.268,Visual search exp,2024.1.5,None,2024-10-10 15h19.55.350684 +0530,
161,0,161,0,367.44177969999964,,367.4153943000001,5,367.44177969999964,367.44177969999964,0.017140800000561285,368.4438111999998,369.44596720000027,[-0.41759259259259257],[0.1111111111111111],[1],[0],[0],[2.0137714000002234],['target'],4,001,2024-10-10_15h19.42.268,Visual search exp,2024.1.5,None,2024-10-10 15h19.55.350684 +0530,
162,0,162,0,369.5134895000001,,369.45336640000005,10,369.5134895000001,369.5134895000001,0.04644269999971584,370.51734750000014,371.05186969999977,[0.3037037037037037],[0.06388888888888888],[1],[0],[0],[1.5532886999999391],['target'],4,001,2024-10-10_15h19.42.268,Visual search exp,2024.1.5,None,2024-10-10 15h19.55.350684 +0530,
163,0,163,0,371.0829364000001,,371.0563384999996,5,371.0829364000001,371.0829364000001,0.017212899999321962,372.08464099999946,373.5024752999998,[-0.29444444444444445],[0.487962962962963],[1],[0],[0],[2.4295038000000204],['target'],4,001,2024-10-10_15h19.42.268,Visual search exp,2024.1.5,None,2024-10-10 15h19.55.350684 +0530,
164,0,164,0,373.55305359999966,,373.50669990000006,10,373.55305359999966,373.55305359999966,0.03252280000015162,374.5548982999999,375.18957580000006,[0.17407407407407408],[0.12962962962962962],[1],[0],[0],[1.6508692000006704],['target'],4,001,2024-10-10_15h19.42.268,Visual search exp,2024.1.5,None,2024-10-10 15h19.55.350684 +0530,
165,0,165,0,375.22011719999955,,375.1937849999995,5,375.22011719999955,375.22011719999955,0.016984300000331132,376.22201849999965,377.1072600999996,[0.21481481481481482],[-0.2916666666666667],[1],[0],[0],[1.8970205999994505],['target'],4,001,2024-10-10_15h19.42.268,Visual search exp,2024.1.5,None,2024-10-10 15h19.55.350684 +0530,
166,0,166,0,377.15765360000023,,377.1114655000001,10,377.15765360000023,377.15765360000023,0.03213450000021112,378.15978279999945,378.3609741999999,[0.13796296296296295],[-0.25925925925925924],[1],[0],[0],[1.217797100000098],['target'],4,001,2024-10-10_15h19.42.268,Visual search exp,2024.1.5,None,2024-10-10 15h19.55.350684 +0530,
167,0,167,0,378.3920870000002,,378.36541209999996,5,378.3920870000002,378.3920870000002,0.017193399999996473,379.3948091000002,380.7622808999995,[-0.01574074074074074],[0.49537037037037035],[1],[0],[0],[2.3800375999999233],['target'],4,001,2024-10-10_15h19.42.268,Visual search exp,2024.1.5,None,2024-10-10 15h19.55.350684 +0530,
168,0,168,0,380.8087786999995,,380.7698639,5,380.8087786999995,380.8087786999995,0.028378300000440504,381.81274049999956,382.13133670000025,[0.041666666666666664],[0.45925925925925926],[1],[0],[0],[1.3344355999997788],['target'],4,001,2024-10-10_15h19.42.268,Visual search exp,2024.1.5,None,2024-10-10 15h19.55.350684 +0530,
169,0,169,0,382.1818518,,382.13556569999946,10,382.1818518,382.1818518,0.03200440000000526,383.18373599999995,383.5015306999994,[-0.08333333333333333],[0.3768518518518518],[1],[0],[0],[1.3344910000005257],['target'],4,001,2024-10-10_15h19.42.268,Visual search exp,2024.1.5,None,2024-10-10 15h19.55.350684 +0530,
170,0,170,0,383.5528721999999,,383.5061651999995,10,383.5528721999999,383.5528721999999,0.032884399999602465,384.5595137999999,384.9628868,[0.22407407407407406],[0.09814814814814815],[1],[0],[0],[1.4244347999992897],['target'],4,001,2024-10-10_15h19.42.268,Visual search exp,2024.1.5,None,2024-10-10 15h19.55.350684 +0530,
171,0,171,0,385.02924840000014,,384.96758469999986,10,385.02924840000014,385.02924840000014,0.04190480000033858,386.0446000000002,386.83265159999974,[-0.13703703703703704],[-0.13055555555555556],[1],[0],[0],[1.8236779999997452],['target'],4,001,2024-10-10_15h19.42.268,Visual search exp,2024.1.5,None,2024-10-10 15h19.55.350684 +0530,
172,0,172,0,386.88284229999954,,386.8372158000002,10,386.88284229999954,386.88284229999954,0.03187259999958769,387.88584790000004,389.5028862999998,[0.3851851851851852],[-0.2935185185185185],[1],[0],[0],[2.6343714000004184],['target'],4,001,2024-10-10_15h19.42.268,Visual search exp,2024.1.5,None,2024-10-10 15h19.55.350684 +0530,
173,0,173,0,389.5346282999999,,389.5070764000002,5,389.5346282999999,389.5346282999999,0.016460599999845726,390.53719569999976,391.72139229999993,[-0.3037037037037037],[-0.33611111111111114],[1],[0],[0],[2.198245899999165],['target'],4,001,2024-10-10_15h19.42.268,Visual search exp,2024.1.5,None,2024-10-10 15h19.55.350684 +0530,
174,0,174,0,391.7768636999999,,391.72888950000015,5,391.7768636999999,391.7768636999999,0.031460799999877054,392.7773969,393.59486409999954,[0.36018518518518516],[-0.39351851851851855],[1],[0],[0],[1.8356036999994103],['target'],4,001,2024-10-10_15h19.42.268,Visual search exp,2024.1.5,None,2024-10-10 15h19.55.350684 +0530,
175,0,175,0,393.64343180000014,,393.60229209999943,5,393.64343180000014,393.64343180000014,0.029083499999615015,394.6463524999999,395.88026660000014,[-0.4675925925925926],[0.387037037037037],[1],[0],[0],[2.25018480000017],['target'],4,001,2024-10-10_15h19.42.268,Visual search exp,2024.1.5,None,2024-10-10 15h19.55.350684 +0530,
176,0,176,0,395.91122989999985,,395.8848130999995,5,395.91122989999985,395.91122989999985,0.016592999999375024,396.9143785999995,397.53250370000023,[-0.3648148148148148],[-0.22870370370370371],[1],[0],[0],[1.6316602000006242],['target'],4,001,2024-10-10_15h19.42.268,Visual search exp,2024.1.5,None,2024-10-10 15h19.55.350684 +0530,
177,0,177,0,397.57579199999964,,397.5367587999999,5,397.57579199999964,397.57579199999964,0.02742279999984021,398.5835769999994,400.2665758000003,[-0.09814814814814815],[0.3537037037037037],[1],[0],[0],[2.702942300000359],['target'],4,001,2024-10-10_15h19.42.268,Visual search exp,2024.1.5,None,2024-10-10 15h19.55.350684 +0530,
178,0,178,0,400.3169047000001,,400.2707693000002,10,400.3169047000001,400.3169047000001,0.0320491000002221,401.31869519999964,404.0845081999996,[-0.11574074074074074],[-0.40925925925925927],[1],[0],[0],[3.782259300000078],['target'],4,001,2024-10-10_15h19.42.268,Visual search exp,2024.1.5,None,2024-10-10 15h19.55.350684 +0530,
179,0,179,0,404.1380872,,404.08939719999944,10,404.1380872,404.1380872,0.03272150000066176,405.14065800000026,405.8921346999996,[-0.4703703703703704],[-0.24722222222222223],[1],[0],[0],[1.7706803999999465],['target'],4,001,2024-10-10_15h19.42.268,Visual search exp,2024.1.5,None,2024-10-10 15h19.55.350684 +0530,
180,0,180,0,405.9433094999995,,405.89676340000005,10,405.9433094999995,405.9433094999995,0.03247490000012476,406.94565169999987,407.4803661999995,[0.23148148148148148],[0.08518518518518518],[1],[0],[0],[1.5516844000003402],['target'],4,001,2024-10-10_15h19.42.268,Visual search exp,2024.1.5,None,2024-10-10 15h19.55.350684 +0530,
181,0,181,0,407.5116516999997,,407.4845943999999,5,407.5116516999997,407.5116516999997,0.017170500000247557,408.51417219999985,409.01554979999946,[0.013888888888888888],[0.2388888888888889],[1],[0],[0],[1.5143490999998903],['target'],4,001,2024-10-10_15h19.42.268,Visual search exp,2024.1.5,None,2024-10-10 15h19.55.350684 +0530,
182,0,182,0,409.04636909999954,,409.02014729999973,5,409.04636909999954,409.04636909999954,0.016688899999280693,410.0486725999999,410.6836635999998,[-0.11296296296296296],[0.4361111111111111],[1],[0],[0],[1.6472907999996096],['target'],4,001,2024-10-10_15h19.42.268,Visual search exp,2024.1.5,None,2024-10-10 15h19.55.350684 +0530,
183,0,183,0,410.7339955999996,,410.68837970000004,10,410.7339955999996,410.7339955999996,0.0319164999991699,411.73663209999995,413.1203329,[-0.412962962962963],[-0.11203703703703703],[1],[0],[0],[2.4004866000004768],['target'],4,001,2024-10-10_15h19.42.268,Visual search exp,2024.1.5,None,2024-10-10 15h19.55.350684 +0530,
184,0,184,0,413.1520733999996,,413.12478980000014,5,413.1520733999996,413.1520733999996,0.017315500000222528,414.15455329999986,414.672638,[0.0824074074074074],[-0.06666666666666667],[1],[0],[0],[1.5309852999998839],['target'],4,001,2024-10-10_15h19.42.268,Visual search exp,2024.1.5,None,2024-10-10 15h19.55.350684 +0530,
185,0,185,0,414.7034352999999,,414.67695920000006,5,414.7034352999999,414.7034352999999,0.01647670000056678,415.7063492999996,416.8069112000003,[-0.24722222222222223],[0.1814814814814815],[1],[0],[0],[2.114078600000539],['target'],4,001,2024-10-10_15h19.42.268,Visual search exp,2024.1.5,None,2024-10-10 15h19.55.350684 +0530,
186,0,186,0,416.88068459999977,,416.8117545999994,10,416.88068459999977,416.88068459999977,0.04934529999991355,417.8985462999999,419.95495459999984,[0.35833333333333334],[-0.13240740740740742],[1],[0],[0],[3.094997900000635],['target'],4,001,2024-10-10_15h19.42.268,Visual search exp,2024.1.5,None,2024-10-10 15h19.55.350684 +0530,
187,0,187,0,420.0053743999997,,419.9596974999995,10,420.0053743999997,420.0053743999997,0.03183720000015455,421.00813149999976,422.3915876000001,[0.4222222222222222],[0.44166666666666665],[1],[0],[0],[2.400641899999755],['target'],4,001,2024-10-10_15h19.42.268,Visual search exp,2024.1.5,None,2024-10-10 15h19.55.350684 +0530,
188,0,188,0,422.4221458000002,,422.39581290000024,5,422.4221458000002,422.4221458000002,0.016528099999959522,423.4250462,425.2600745999998,[-0.32037037037037036],[0.03981481481481482],[1],[0],[0],[2.8479753999999957],['target'],4,001,2024-10-10_15h19.42.268,Visual search exp,2024.1.5,None,2024-10-10 15h19.55.350684 +0530,
189,0,189,0,425.3027493999998,,425.26849969999967,5,425.3027493999998,425.3027493999998,0.025332999999591266,426.30972500000007,427.2623027999998,[-0.30648148148148147],[0.10833333333333334],[1],[0],[0],[1.9698175000003175],['target'],4,001,2024-10-10_15h19.42.268,Visual search exp,2024.1.5,None,2024-10-10 15h19.55.350684 +0530,
190,0,190,0,427.3287669000001,,427.2705612,10,427.3287669000001,427.3287669000001,0.044076500000301166,428.3334845999998,430.5506800000003,[0.18425925925925926],[-0.42407407407407405],[1],[0],[0],[3.2373289999995905],['target'],4,001,2024-10-10_15h19.42.268,Visual search exp,2024.1.5,None,2024-10-10 15h19.55.350684 +0530,
191,0,191,0,430.60303269999986,,430.5552937000002,10,430.60303269999986,430.60303269999986,0.033152899999549845,431.6057522000001,433.1232087999997,[0.3990740740740741],[-0.02962962962962963],[1],[0],[0],[2.535282599999846],['target'],4,001,2024-10-10_15h19.42.268,Visual search exp,2024.1.5,None,2024-10-10 15h19.55.350684 +0530,
192,0,192,0,433.1537873999996,,433.12741800000003,5,433.1537873999996,433.1537873999996,0.016395799999372684,434.1562451,435.60673339999994,[-0.10092592592592593],[-0.4675925925925926],[1],[0],[0],[2.463391999999658],['target'],4,001,2024-10-10_15h19.42.268,Visual search exp,2024.1.5,None,2024-10-10 15h19.55.350684 +0530,
193,0,193,0,435.6586064000003,,435.6109471,10,435.6586064000003,435.6586064000003,0.032081400000606664,436.6611033999998,438.46134770000026,[-0.32314814814814813],[0.2611111111111111],[1],[0],[0],[2.8188812999997026],['target'],4,001,2024-10-10_15h19.42.268,Visual search exp,2024.1.5,None,2024-10-10 15h19.55.350684 +0530,
194,0,194,0,438.5163058999997,,438.4657350999996,10,438.5163058999997,438.5163058999997,0.03539920000002894,439.5219755999997,440.51844170000004,[-0.33611111111111114],[-0.32222222222222224],[1],[0],[0],[2.017886499999804],['target'],4,001,2024-10-10_15h19.42.268,Visual search exp,2024.1.5,None,2024-10-10 15h19.55.350684 +0530,
195,0,195,0,440.5690757000002,,440.5226703999997,10,440.5690757000002,440.5690757000002,0.0319841999998971,441.57133299999987,442.3745822000001,[-0.3296296296296296],[0.075],[1],[0],[0],[1.8204932999997254],['target'],4,001,2024-10-10_15h19.42.268,Visual search exp,2024.1.5,None,2024-10-10 15h19.55.350684 +0530,
196,0,196,0,442.4054997000003,,442.3788238999996,5,442.4054997000003,442.4054997000003,0.016600999999354826,443.4077060999998,444.3583329000003,[-0.2111111111111111],[-0.3111111111111111],[1],[0],[0],[1.9634732999993503],['target'],4,001,2024-10-10_15h19.42.268,Visual search exp,2024.1.5,None,2024-10-10 15h19.55.350684 +0530,
197,0,197,0,444.40831460000027,,444.36301679999997,10,444.40831460000027,444.40831460000027,0.03183360000002722,445.41124299999956,446.1789423,[0.04537037037037037],[-0.08055555555555556],[1],[0],[0],[1.7849975999997696],['target'],4,001,2024-10-10_15h19.42.268,Visual search exp,2024.1.5,None,2024-10-10 15h19.55.350684 +0530,
198,0,198,0,446.2298294000002,,446.1835596000001,10,446.2298294000002,446.2298294000002,0.032409800000095856,447.2324149999995,450.4650842000001,[0.18703703703703703],[0.4398148148148148],[1],[0],[0],[4.2496586999996],['target'],4,001,2024-10-10_15h19.42.268,Visual search exp,2024.1.5,None,2024-10-10 15h19.55.350684 +0530,
199,0,199,0,450.4971254000002,,450.4696752,5,450.4971254000002,450.4971254000002,0.01645360000020446,451.49987599999986,452.61777859999984,[-0.42962962962962964],[0.3685185185185185],[1],[0],[0],[2.1322024999999485],['target'],4,001,2024-10-10_15h19.42.268,Visual search exp,2024.1.5,None,2024-10-10 15h19.55.350684 +0530,
