stair.thisTrialN,stair.stepSize,stair.intensity,thisRow.t,notes,trial.started,fixation.started,grating.started,key_resp.started,fixation.stopped,grating.stopped,trial.stopped,corrAns,tilt,key_resp.corr,stair.response,key_resp.rt,participant,session,date,expName,psychopyVersion,frameRate,expStart,
0,2,10.0,0.08924249999108724,,0.048789799999212846,0.08924249999108724,0.62935020000441,0.62935020000441,0.6408171000075527,0.9391734999953769,7.881089000002248,left,-10.0,0,0,7.113794600008987,028536,001,2024-09-01_23h35.35.996,untitled,2024.1.5,None,2024-09-01 23h35.42.531756 +0530,
1,2,12.0,7.887201500008814,,7.881191399996169,7.887201500008814,8.383595399995102,8.383595399995102,8.400186200015014,,8.440458299999591,right,12.0,0,0,0.04074259998742491,028536,001,2024-09-01_23h35.35.996,untitled,2024.1.5,None,2024-09-01 23h35.42.531756 +0530,
2,2,14.0,8.45063529998879,,8.440586899989285,8.45063529998879,8.949569099990185,8.949569099990185,8.949569099990185,9.249493999988772,9.536366299988003,left,-14.0,0,0,0.576277799991658,028536,001,2024-09-01_23h35.35.996,untitled,2024.1.5,None,2024-09-01 23h35.42.531756 +0530,
3,2,16.0,9.549166500015417,,9.536472100007813,9.549166500015417,10.049123700009659,10.049123700009659,10.049123700009659,,10.25323090000893,right,16.0,0,0,0.19753530001617037,028536,001,2024-09-01_23h35.35.996,untitled,2024.1.5,None,2024-09-01 23h35.42.531756 +0530,
4,1,18.0,10.264778899989324,,10.253315300011309,10.264778899989324,10.76489120000042,10.76489120000042,10.76489120000042,11.064406099991174,11.068619700003183,right,18.0,1,1,0.2916841999976896,028536,001,2024-09-01_23h35.35.996,untitled,2024.1.5,None,2024-09-01 23h35.42.531756 +0530,
5,1,17.0,11.08133590000216,,11.06870999999228,11.08133590000216,11.580512999993516,11.580512999993516,11.580512999993516,11.880598999996437,12.08718790000421,right,17.0,1,1,0.4995469999848865,028536,001,2024-09-01_23h35.35.996,untitled,2024.1.5,None,2024-09-01 23h35.42.531756 +0530,
6,1,17.0,12.097253599989926,,12.087314500007778,12.097253599989926,12.596683100011433,12.596683100011433,12.596683100011433,12.896725800004788,12.986886800004868,right,17.0,1,1,0.38127199999871664,028536,001,2024-09-01_23h35.35.996,untitled,2024.1.5,None,2024-09-01 23h35.42.531756 +0530,
7,1,17.0,12.996375399990939,,12.98701430001529,12.996375399990939,13.496051699999953,13.496051699999953,13.496051699999953,,13.553131599997869,left,-17.0,0,0,0.04611970001133159,028536,001,2024-09-01_23h35.35.996,untitled,2024.1.5,None,2024-09-01 23h35.42.531756 +0530,
8,1,18.0,13.562682699994184,,13.553269299998647,13.562682699994184,14.062211000011303,14.062211000011303,14.062211000011303,,14.186016999999993,left,-18.0,0,0,0.10734509999747388,028536,001,2024-09-01_23h35.35.996,untitled,2024.1.5,None,2024-09-01 23h35.42.531756 +0530,
9,1,19.0,14.195439600007376,,14.18614959999104,14.195439600007376,14.695094499998959,14.695094499998959,14.695094499998959,14.99507010000525,15.003077900008066,right,19.0,0,0,0.2913201999908779,028536,001,2024-09-01_23h35.35.996,untitled,2024.1.5,None,2024-09-01 23h35.42.531756 +0530,
10,1,20.0,15.026329599990277,,15.003236099990318,15.026329599990277,15.511086499987869,15.511086499987869,15.527805299992906,,15.519030600000406,left,-20.0,1,1,0.0038687000051140785,028536,001,2024-09-01_23h35.35.996,untitled,2024.1.5,None,2024-09-01 23h35.42.531756 +0530,
11,1,20.0,15.527805299992906,,15.51915929999086,15.527805299992906,16.027347099996405,16.027347099996405,16.027347099996405,,16.11746470001526,right,20.0,0,0,0.07421019999310374,028536,001,2024-09-01_23h35.35.996,untitled,2024.1.5,None,2024-09-01 23h35.42.531756 +0530,
12,1,20.0,16.127152100001695,,16.117595499992603,16.127152100001695,16.626750600000378,16.626750600000378,16.626750600000378,,16.73004170000786,left,-20.0,1,1,0.09508580001420341,028536,001,2024-09-01_23h35.35.996,untitled,2024.1.5,None,2024-09-01 23h35.42.531756 +0530,
13,1,20.0,16.74309249999351,,16.7301218000066,16.74309249999351,17.24301820000983,17.24301820000983,17.24301820000983,17.542064900015248,18.16275650000898,left,-20.0,1,1,0.9057955000025686,028536,001,2024-09-01_23h35.35.996,untitled,2024.1.5,None,2024-09-01 23h35.42.531756 +0530,
14,0,20.0,18.175309699989157,,18.16284010000527,18.175309699989157,18.67446569999447,18.67446569999447,18.67446569999447,18.974526600009995,19.445161600015126,right,20.0,1,1,0.7685387000092305,028536,001,2024-09-01_23h35.35.996,untitled,2024.1.5,None,2024-09-01 23h35.42.531756 +0530,
15,0,20.0,19.45753519999562,,19.445249500015052,19.45753519999562,19.957315300009213,19.957315300009213,19.957315300009213,20.25682469998719,20.37958730000537,left,-20.0,1,1,0.4167580000066664,028536,001,2024-09-01_23h35.35.996,untitled,2024.1.5,None,2024-09-01 23h35.42.531756 +0530,
16,0,20.0,20.39029529999243,,20.37969709999743,20.39029529999243,20.889913899998646,20.889913899998646,20.889913899998646,21.189108199992916,21.29345130000729,right,20.0,1,1,0.3947819000168238,028536,001,2024-09-01_23h35.35.996,untitled,2024.1.5,None,2024-09-01 23h35.42.531756 +0530,
17,0,20.0,21.306116899999324,,21.293536100012716,21.306116899999324,21.805788400000893,21.805788400000893,21.805788400000893,,22.07709830001113,left,-20.0,1,1,0.25472399999853224,028536,001,2024-09-01_23h35.35.996,untitled,2024.1.5,None,2024-09-01 23h35.42.531756 +0530,
18,0,20.0,22.088621800008696,,22.077188299997943,22.088621800008696,22.588225599989528,22.588225599989528,22.588225599989528,22.88822260001325,23.108901100000367,right,20.0,1,1,0.5117458000022452,028536,001,2024-09-01_23h35.35.996,untitled,2024.1.5,None,2024-09-01 23h35.42.531756 +0530,
19,5,20.0,23.121842900000047,,23.108986000006553,23.121842900000047,23.621157299989136,23.621157299989136,23.63747690001037,,23.675486699998146,right,20.0,0,0,0.044033999991370365,028536,001,2024-09-01_23h35.35.996,untitled,2024.1.5,None,2024-09-01 23h35.42.531756 +0530,
20,5,20.0,23.687452899990603,,23.675588399986736,23.687452899990603,24.187287600012496,24.187287600012496,24.187287600012496,24.48696489998838,24.540283000009367,left,-20.0,0,0,0.35048160000587814,028536,001,2024-09-01_23h35.35.996,untitled,2024.1.5,None,2024-09-01 23h35.42.531756 +0530,
21,5,20.0,24.553358900011517,,24.54037080000853,24.553358900011517,25.053192699997453,25.053192699997453,25.053192699997453,25.35246970001026,27.208399700000882,right,20.0,0,0,2.137756799987983,028536,001,2024-09-01_23h35.35.996,untitled,2024.1.5,None,2024-09-01 23h35.42.531756 +0530,
22,5,20.0,27.21797629998764,,27.20853309999802,27.21797629998764,27.717487299989443,27.717487299989443,27.717487299989443,28.01733430000604,29.52356289999443,left,-20.0,1,1,1.7903290999820456,028536,001,2024-09-01_23h35.35.996,untitled,2024.1.5,None,2024-09-01 23h35.42.531756 +0530,
23,5,20.0,29.532755099993665,,29.523689699999522,29.532755099993665,30.032474900013767,30.032474900013767,30.032474900013767,30.332167399988975,30.685923999990337,left,-20.0,1,1,0.6372328999859747,028536,001,2024-09-01_23h35.35.996,untitled,2024.1.5,None,2024-09-01 23h35.42.531756 +0530,
24,5,20.0,30.69878370000515,,30.686084699991625,30.69878370000515,31.197934600000735,31.197934600000735,31.197934600000735,31.497784200008027,31.85405379999429,right,20.0,1,1,0.6400168999971356,028536,001,2024-09-01_23h35.35.996,untitled,2024.1.5,None,2024-09-01 23h35.42.531756 +0530,
25,5,15.0,31.86420690000523,,31.854188900004374,31.86420690000523,32.36357330001192,32.36357330001192,32.36357330001192,32.66264029999729,32.98684590001358,right,15.0,0,0,0.6218460999953095,028536,001,2024-09-01_23h35.35.996,untitled,2024.1.5,None,2024-09-01 23h35.42.531756 +0530,
26,5,20.0,32.9964895999874,,32.98698419998982,32.9964895999874,33.49605370001518,33.49605370001518,33.49605370001518,33.79579410000588,34.26878280000528,left,-20.0,1,1,0.7654427000088617,028536,001,2024-09-01_23h35.35.996,untitled,2024.1.5,None,2024-09-01 23h35.42.531756 +0530,
27,5,20.0,34.278670800005784,,34.2689102999866,34.278670800005784,34.778590000001714,34.778590000001714,34.778590000001714,35.078506399993785,35.202415800013114,left,-20.0,0,0,0.4084491999819875,028536,001,2024-09-01_23h35.35.996,untitled,2024.1.5,None,2024-09-01 23h35.42.531756 +0530,
28,5,20.0,35.21155290000024,,35.2025663999957,35.21155290000024,35.71093010000186,35.71093010000186,35.71093010000186,36.01172680000309,36.06794589999481,right,20.0,0,0,0.35331289999885485,028536,001,2024-09-01_23h35.35.996,untitled,2024.1.5,None,2024-09-01 23h35.42.531756 +0530,
29,5,20.0,36.077436099993065,,36.068106899998384,36.077436099993065,36.57714380000834,36.57714380000834,36.57714380000834,36.87650310000754,37.46401200001128,left,-20.0,1,1,0.8814525000052527,028536,001,2024-09-01_23h35.35.996,untitled,2024.1.5,None,2024-09-01 23h35.42.531756 +0530,
30,5,20.0,37.47593939999933,,37.464095500006806,37.47593939999933,37.975716499990085,37.975716499990085,37.975716499990085,38.275277500011725,38.51405510000768,left,-20.0,1,1,0.5364765000122134,028536,001,2024-09-01_23h35.35.996,untitled,2024.1.5,None,2024-09-01 23h35.42.531756 +0530,
31,5,20.0,38.52504169999156,,38.514156399993226,38.52504169999156,39.0247393999889,39.0247393999889,39.0247393999889,39.32416970000486,39.42910629999824,left,-20.0,1,1,0.39376519998768345,028536,001,2024-09-01_23h35.35.996,untitled,2024.1.5,None,2024-09-01 23h35.42.531756 +0530,
32,5,15.0,39.4411170000094,,39.42921239999123,39.4411170000094,39.94148129998939,39.94148129998939,39.94148129998939,40.241112499992596,40.73044350001146,left,-15.0,1,1,0.7744594999821857,028536,001,2024-09-01_23h35.35.996,untitled,2024.1.5,None,2024-09-01 23h35.42.531756 +0530,
33,5,15.0,40.740062099997886,,40.73057099999278,40.740062099997886,41.23979769999278,41.23979769999278,41.23979769999278,41.539429099997506,41.72910170000978,left,-15.0,1,1,0.474817999987863,028536,001,2024-09-01_23h35.35.996,untitled,2024.1.5,None,2024-09-01 23h35.42.531756 +0530,
34,5,15.0,41.73961540000164,,41.72922869998729,41.73961540000164,42.23878310000873,42.23878310000873,42.23878310000873,42.538625599991065,42.612271299993154,right,15.0,0,0,0.3720133999886457,028536,001,2024-09-01_23h35.35.996,untitled,2024.1.5,None,2024-09-01 23h35.42.531756 +0530,
35,5,20.0,42.62182900001062,,42.612418700009584,42.62182900001062,43.12147169999662,43.12147169999662,43.12147169999662,43.4214925999986,43.661306900001364,left,-20.0,1,1,0.5292079000209924,028536,001,2024-09-01_23h35.35.996,untitled,2024.1.5,None,2024-09-01 23h35.42.531756 +0530,
36,5,20.0,43.67100959998788,,43.66143929999089,43.67100959998788,44.1707572999876,44.1707572999876,44.1707572999876,44.470949500013376,44.5907686999999,right,20.0,1,1,0.41279130001203157,028536,001,2024-09-01_23h35.35.996,untitled,2024.1.5,None,2024-09-01 23h35.42.531756 +0530,
37,5,20.0,44.60335349998786,,44.59085000000778,44.60335349998786,45.10366029999568,45.10366029999568,45.10366029999568,45.403006600012304,45.576493800006574,left,-20.0,1,1,0.4581144000112545,028536,001,2024-09-01_23h35.35.996,untitled,2024.1.5,None,2024-09-01 23h35.42.531756 +0530,
38,5,15.0,45.58612729999004,,45.57665760000236,45.58612729999004,46.08607990000746,46.08607990000746,46.08607990000746,46.38560639999923,46.50962490000529,left,-15.0,0,0,0.41446719999657944,028536,001,2024-09-01_23h35.35.996,untitled,2024.1.5,None,2024-09-01 23h35.42.531756 +0530,
39,5,20.0,46.51855340000475,,46.509758900007,46.51855340000475,47.018413899990264,47.018413899990264,47.018413899990264,47.3182594999962,47.40833850001218,left,-20.0,1,1,0.3736596000089776,028536,001,2024-09-01_23h35.35.996,untitled,2024.1.5,None,2024-09-01 23h35.42.531756 +0530,
40,5,20.0,47.41795339999953,,47.408489699999336,47.41795339999953,47.917476100003114,47.917476100003114,47.917476100003114,48.21733859999222,48.325042400014354,right,20.0,0,0,0.3981662000005599,028536,001,2024-09-01_23h35.35.996,untitled,2024.1.5,None,2024-09-01 23h35.42.531756 +0530,
41,5,20.0,48.33435779999127,,48.32520240001031,48.33435779999127,48.8335223000031,48.8335223000031,48.8335223000031,49.13301039999351,49.187309900007676,left,-20.0,1,1,0.3527679000108037,028536,001,2024-09-01_23h35.35.996,untitled,2024.1.5,None,2024-09-01 23h35.42.531756 +0530,
42,5,20.0,49.199953500006814,,49.18739539998933,49.199953500006814,49.69897860000492,49.69897860000492,49.71694730001036,,49.95269529998768,right,20.0,1,1,0.24829840002348647,028536,001,2024-09-01_23h35.35.996,untitled,2024.1.5,None,2024-09-01 23h35.42.531756 +0530,
43,5,20.0,49.96586009999737,,49.95279129999108,49.96586009999737,50.46587200000067,50.46587200000067,50.46587200000067,,50.60235319999629,left,-20.0,1,1,0.11920710001140833,028536,001,2024-09-01_23h35.35.996,untitled,2024.1.5,None,2024-09-01 23h35.42.531756 +0530,
44,5,15.0,50.615236100013135,,50.6024413999985,50.615236100013135,51.11434729999746,51.11434729999746,51.11434729999746,,51.1383344999922,right,15.0,1,1,0.009789300005650148,028536,001,2024-09-01_23h35.35.996,untitled,2024.1.5,None,2024-09-01 23h35.42.531756 +0530,
45,5,15.0,51.14758210000582,,51.13846819999162,51.14758210000582,51.64774740001303,51.64774740001303,51.64774740001303,,51.73495310000726,right,15.0,0,0,0.07225019999896176,028536,001,2024-09-01_23h35.35.996,untitled,2024.1.5,None,2024-09-01 23h35.42.531756 +0530,
46,5,20.0,51.74741529999301,,51.735040300001856,51.74741529999301,52.247289699997054,52.247289699997054,52.247289699997054,,52.30502679999336,right,20.0,0,0,0.05167650000657886,028536,001,2024-09-01_23h35.35.996,untitled,2024.1.5,None,2024-09-01 23h35.42.531756 +0530,
47,5,20.0,52.31406840001,,52.30516129999887,52.31406840001,52.81342550000409,52.81342550000409,52.81342550000409,,52.936569300014526,left,-20.0,1,1,None,028536,001,2024-09-01_23h35.35.996,untitled,2024.1.5,None,2024-09-01 23h35.42.531756 +0530,
48,5,20.0,52.946680499997456,,52.9366963999928,52.946680499997456,53.44645320001291,53.44645320001291,53.44645320001291,53.74604550001095,54.10272830000031,left,-20.0,1,1,0.6528173999977298,028536,001,2024-09-01_23h35.35.996,untitled,2024.1.5,None,2024-09-01 23h35.42.531756 +0530,
49,5,20.0,54.11289710001438,,54.102857199992286,54.11289710001438,54.61191249999683,54.61191249999683,54.61191249999683,54.91188890000922,55.152578300010646,left,-20.0,1,1,0.5291779000253882,028536,001,2024-09-01_23h35.35.996,untitled,2024.1.5,None,2024-09-01 23h35.42.531756 +0530,
